{
  "text": {
    "type": "blue",
    "data": "Domains"
  },
  "children": {
    "0": {
      "name": {
        "type": "blue",
        "data": "DM"
      },
      "text": {
        "type": "blue",
        "data": "Demographics"
      },
      "structure": {
        "type": "blue",
        "data": "One record per subject"
      },
      "class": {
        "type": "blue",
        "data": "Special Purpose Domains"
      },
      "description": {
        "type": "blue",
        "data": ""
      },
      "children": {
        "0": {
          "text": {
            "type": "blue",
            "data": "STUDYID"
          },
          "name": {
            "type": "blue",
            "data": "Study Identifier"
          },
          "@TYPE": {
            "type": "blue",
            "data": "Char"
          },
          "@LENGTH": {
            "type": "blue",
            "data": "20"
          },
          "@ROLE": {
            "type": "blue",
            "data": "Identifier"
          },
          "@CORE": {
            "type": "blue",
            "data": "Req"
          },
          "@CONTROLLED": {
            "type": "blue",
            "data": ""
          },
          "description": {
            "type": "blue",
            "data": ""
          },
          "@ORIGIN": {
            "type": "blue",
            "data": "Assigned"
          },
          "@ORDER": {
            "type": "blue",
            "data": "1"
          },
          "@Comments": {
            "type": "blue",
            "data": ""
          }
        },
        "1": {
          "text": {
            "type": "blue",
            "data": "DOMAIN"
          },
          "name": {
            "type": "blue",
            "data": "Domain Abbreviation"
          },
          "@TYPE": {
            "type": "blue",
            "data": "Char"
          },
          "@LENGTH": {
            "type": "blue",
            "data": "2"
          },
          "@ROLE": {
            "type": "blue",
            "data": "Identifier"
          },
          "@CORE": {
            "type": "blue",
            "data": "Req"
          },
          "@CONTROLLED": {
            "type": "blue",
            "data": ""
          },
          "description": {
            "type": "blue",
            "data": ""
          },
          "@ORIGIN": {
            "type": "blue",
            "data": "Assigned"
          },
          "@ORDER": {
            "type": "blue",
            "data": "2"
          },
          "@Comments": {
            "type": "blue",
            "data": ""
          }
        },
        "2": {
          "text": {
            "type": "blue",
            "data": "USUBJID"
          },
          "name": {
            "type": "blue",
            "data": "Unique Subject Identifier"
          },
          "@TYPE": {
            "type": "blue",
            "data": "Char"
          },
          "@LENGTH": {
            "type": "blue",
            "data": "25"
          },
          "@ROLE": {
            "type": "blue",
            "data": "Identifier"
          },
          "@CORE": {
            "type": "blue",
            "data": "Req"
          },
          "@CONTROLLED": {
            "type": "blue",
            "data": ""
          },
          "description": {
            "type": "blue",
            "data": ""
          },
          "@ORIGIN": {
            "type": "blue",
            "data": "Derived"
          },
          "@ORDER": {
            "type": "blue",
            "data": "4"
          },
          "@Comments": {
            "type": "blue",
            "data": "Concatenate STUDYID, SITEID and SUBJID, separated by \"-\"."
          }
        },
        "3": {
          "text": {
            "type": "blue",
            "data": "SUBJID"
          },
          "name": {
            "type": "blue",
            "data": "Subject Identifier for the Study"
          },
          "@TYPE": {
            "type": "blue",
            "data": "Char"
          },
          "@LENGTH": {
            "type": "blue",
            "data": "20"
          },
          "@ROLE": {
            "type": "blue",
            "data": "Topic"
          },
          "@CORE": {
            "type": "blue",
            "data": "Req"
          },
          "@CONTROLLED": {
            "type": "blue",
            "data": ""
          },
          "description": {
            "type": "blue",
            "data": ""
          },
          "@ORIGIN": {
            "type": "blue",
            "data": "Assigned"
          },
          "@ORDER": {
            "type": "blue",
            "data": "20"
          },
          "@Comments": {
            "type": "blue",
            "data": ""
          }
        },
        "4": {
          "text": {
            "type": "blue",
            "data": "RFSTDTC"
          },
          "name": {
            "type": "blue",
            "data": "Subject Reference Start Date/Time"
          },
          "@TYPE": {
            "type": "blue",
            "data": "Char"
          },
          "@LENGTH": {
            "type": "blue",
            "data": "20"
          },
          "@ROLE": {
            "type": "blue",
            "data": "Record Qualifier"
          },
          "@CORE": {
            "type": "blue",
            "data": "Exp"
          },
          "@CONTROLLED": {
            "type": "blue",
            "data": "ISO 8601"
          },
          "description": {
            "type": "blue",
            "data": ""
          },
          "@ORIGIN": {
            "type": "blue",
            "data": "Derived"
          },
          "@ORDER": {
            "type": "blue",
            "data": "21"
          },
          "@Comments": {
            "type": "blue",
            "data": "For safety subjects equal to first date/time of study drug. Null for subjects who did not take study drug."
          }
        },
        "5": {
          "text": {
            "type": "blue",
            "data": "RFENDTC"
          },
          "name": {
            "type": "blue",
            "data": "Subject Reference End Date/Time"
          },
          "@TYPE": {
            "type": "blue",
            "data": "Char"
          },
          "@LENGTH": {
            "type": "blue",
            "data": "20"
          },
          "@ROLE": {
            "type": "blue",
            "data": "Record Qualifier"
          },
          "@CORE": {
            "type": "blue",
            "data": "Exp"
          },
          "@CONTROLLED": {
            "type": "blue",
            "data": "ISO 8601"
          },
          "description": {
            "type": "blue",
            "data": ""
          },
          "@ORIGIN": {
            "type": "blue",
            "data": "Derived"
          },
          "@ORDER": {
            "type": "blue",
            "data": "22"
          },
          "@Comments": {
            "type": "blue",
            "data": "For safety subjects equal to last date/time of study drug. Null for subjects who did not take study drug."
          }
        },
        "6": {
          "text": {
            "type": "blue",
            "data": "RFXSTDTC"
          },
          "name": {
            "type": "blue",
            "data": "Date/Time of First Study Treatment"
          },
          "@TYPE": {
            "type": "blue",
            "data": "Char"
          },
          "@LENGTH": {
            "type": "blue",
            "data": "20"
          },
          "@ROLE": {
            "type": "blue",
            "data": "Record Qualifier"
          },
          "@CORE": {
            "type": "blue",
            "data": "Exp"
          },
          "@CONTROLLED": {
            "type": "blue",
            "data": "ISO 8601"
          },
          "description": {
            "type": "blue",
            "data": ""
          },
          "@ORIGIN": {
            "type": "blue",
            "data": "Derived"
          },
          "@ORDER": {
            "type": "blue",
            "data": "23"
          },
          "@Comments": {
            "type": "blue",
            "data": "Equal to first date/time of study drug. Null for subjects who did not take study drug."
          }
        },
        "7": {
          "text": {
            "type": "blue",
            "data": "RFXENDTC"
          },
          "name": {
            "type": "blue",
            "data": "Date/Time of Last Study Treatment"
          },
          "@TYPE": {
            "type": "blue",
            "data": "Char"
          },
          "@LENGTH": {
            "type": "blue",
            "data": "20"
          },
          "@ROLE": {
            "type": "blue",
            "data": "Record Qualifier"
          },
          "@CORE": {
            "type": "blue",
            "data": "Exp"
          },
          "@CONTROLLED": {
            "type": "blue",
            "data": "ISO 8601"
          },
          "description": {
            "type": "blue",
            "data": ""
          },
          "@ORIGIN": {
            "type": "blue",
            "data": "Derived"
          },
          "@ORDER": {
            "type": "blue",
            "data": "24"
          },
          "@Comments": {
            "type": "blue",
            "data": "Equal to last date/time of study drug. Null for subjects who did not take study drug."
          }
        },
        "8": {
          "text": {
            "type": "blue",
            "data": "RFICDTC"
          },
          "name": {
            "type": "blue",
            "data": "Date/Time of Informed Consent"
          },
          "@TYPE": {
            "type": "blue",
            "data": "Char"
          },
          "@LENGTH": {
            "type": "blue",
            "data": "20"
          },
          "@ROLE": {
            "type": "blue",
            "data": "Record Qualifier"
          },
          "@CORE": {
            "type": "blue",
            "data": "Exp"
          },
          "@CONTROLLED": {
            "type": "blue",
            "data": "ISO 8601"
          },
          "description": {
            "type": "blue",
            "data": ""
          },
          "@ORIGIN": {
            "type": "blue",
            "data": "Assigned"
          },
          "@ORDER": {
            "type": "blue",
            "data": "25"
          },
          "@Comments": {
            "type": "blue",
            "data": ""
          }
        },
        "9": {
          "text": {
            "type": "blue",
            "data": "RFPENDTC"
          },
          "name": {
            "type": "blue",
            "data": "Date/Time of End of Participation"
          },
          "@TYPE": {
            "type": "blue",
            "data": "Char"
          },
          "@LENGTH": {
            "type": "blue",
            "data": "20"
          },
          "@ROLE": {
            "type": "blue",
            "data": "Record Qualifier"
          },
          "@CORE": {
            "type": "blue",
            "data": "Exp"
          },
          "@CONTROLLED": {
            "type": "blue",
            "data": "ISO 8601"
          },
          "description": {
            "type": "blue",
            "data": ""
          },
          "@ORIGIN": {
            "type": "blue",
            "data": "Derived"
          },
          "@ORDER": {
            "type": "blue",
            "data": "26"
          },
          "@Comments": {
            "type": "blue",
            "data": "Last known date of contact"
          }
        },
        "10": {
          "text": {
            "type": "blue",
            "data": "DTHDTC"
          },
          "name": {
            "type": "blue",
            "data": "Date/Time of Death"
          },
          "@TYPE": {
            "type": "blue",
            "data": "Char"
          },
          "@LENGTH": {
            "type": "blue",
            "data": "20"
          },
          "@ROLE": {
            "type": "blue",
            "data": "Record Qualifier"
          },
          "@CORE": {
            "type": "blue",
            "data": "Exp"
          },
          "@CONTROLLED": {
            "type": "blue",
            "data": "ISO 8601"
          },
          "description": {
            "type": "blue",
            "data": ""
          },
          "@ORIGIN": {
            "type": "blue",
            "data": "Assigned"
          },
          "@ORDER": {
            "type": "blue",
            "data": "27"
          },
          "@Comments": {
            "type": "blue",
            "data": ""
          }
        },
        "11": {
          "text": {
            "type": "blue",
            "data": "DTHFL"
          },
          "name": {
            "type": "blue",
            "data": "Subject Death Flag"
          },
          "@TYPE": {
            "type": "blue",
            "data": "Char"
          },
          "@LENGTH": {
            "type": "blue",
            "data": "1"
          },
          "@ROLE": {
            "type": "blue",
            "data": "Record Qualifier"
          },
          "@CORE": {
            "type": "blue",
            "data": "Exp"
          },
          "@CONTROLLED": {
            "type": "blue",
            "data": "(NY)"
          },
          "description": {
            "type": "blue",
            "data": ""
          },
          "@ORIGIN": {
            "type": "blue",
            "data": "Assigned"
          },
          "@ORDER": {
            "type": "blue",
            "data": "28"
          },
          "@Comments": {
            "type": "blue",
            "data": ""
          }
        },
        "12": {
          "text": {
            "type": "blue",
            "data": "SITEID"
          },
          "name": {
            "type": "blue",
            "data": "Study Site Identifier"
          },
          "@TYPE": {
            "type": "blue",
            "data": "Char"
          },
          "@LENGTH": {
            "type": "blue",
            "data": "10"
          },
          "@ROLE": {
            "type": "blue",
            "data": "Record Qualifier"
          },
          "@CORE": {
            "type": "blue",
            "data": "Req"
          },
          "@CONTROLLED": {
            "type": "blue",
            "data": ""
          },
          "description": {
            "type": "blue",
            "data": ""
          },
          "@ORIGIN": {
            "type": "blue",
            "data": "Assigned"
          },
          "@ORDER": {
            "type": "blue",
            "data": "29"
          },
          "@Comments": {
            "type": "blue",
            "data": ""
          }
        },
        "13": {
          "text": {
            "type": "blue",
            "data": "INVID"
          },
          "name": {
            "type": "blue",
            "data": "Investigator Identifier"
          },
          "@TYPE": {
            "type": "blue",
            "data": "Char"
          },
          "@LENGTH": {
            "type": "blue",
            "data": "50"
          },
          "@ROLE": {
            "type": "blue",
            "data": "Record Qualifier"
          },
          "@CORE": {
            "type": "blue",
            "data": "Perm"
          },
          "@CONTROLLED": {
            "type": "blue",
            "data": ""
          },
          "description": {
            "type": "blue",
            "data": ""
          },
          "@ORIGIN": {
            "type": "blue",
            "data": "Assigned"
          },
          "@ORDER": {
            "type": "blue",
            "data": "30"
          },
          "@Comments": {
            "type": "blue",
            "data": ""
          }
        },
        "14": {
          "text": {
            "type": "blue",
            "data": "INVNAM"
          },
          "name": {
            "type": "blue",
            "data": "Investigator Name"
          },
          "@TYPE": {
            "type": "blue",
            "data": "Char"
          },
          "@LENGTH": {
            "type": "blue",
            "data": "200"
          },
          "@ROLE": {
            "type": "blue",
            "data": "Synonym Qualifier"
          },
          "@CORE": {
            "type": "blue",
            "data": "Perm"
          },
          "@CONTROLLED": {
            "type": "blue",
            "data": ""
          },
          "description": {
            "type": "blue",
            "data": ""
          },
          "@ORIGIN": {
            "type": "blue",
            "data": "Assigned"
          },
          "@ORDER": {
            "type": "blue",
            "data": "31"
          },
          "@Comments": {
            "type": "blue",
            "data": ""
          }
        },
        "15": {
          "text": {
            "type": "blue",
            "data": "BRTHDTC"
          },
          "name": {
            "type": "blue",
            "data": "Date/Time of Birth"
          },
          "@TYPE": {
            "type": "blue",
            "data": "Char"
          },
          "@LENGTH": {
            "type": "blue",
            "data": "20"
          },
          "@ROLE": {
            "type": "blue",
            "data": "Record Qualifier"
          },
          "@CORE": {
            "type": "blue",
            "data": "Perm"
          },
          "@CONTROLLED": {
            "type": "blue",
            "data": "ISO 8601"
          },
          "description": {
            "type": "blue",
            "data": ""
          },
          "@ORIGIN": {
            "type": "blue",
            "data": "Assigned"
          },
          "@ORDER": {
            "type": "blue",
            "data": "32"
          },
          "@Comments": {
            "type": "blue",
            "data": ""
          }
        },
        "16": {
          "text": {
            "type": "blue",
            "data": "AGE"
          },
          "name": {
            "type": "blue",
            "data": "Age"
          },
          "@TYPE": {
            "type": "blue",
            "data": "Num"
          },
          "@LENGTH": {
            "type": "blue",
            "data": "8"
          },
          "@ROLE": {
            "type": "blue",
            "data": "Record Qualifier"
          },
          "@CORE": {
            "type": "blue",
            "data": "Exp"
          },
          "@CONTROLLED": {
            "type": "blue",
            "data": ""
          },
          "description": {
            "type": "blue",
            "data": ""
          },
          "@ORIGIN": {
            "type": "blue",
            "data": "Derived"
          },
          "@ORDER": {
            "type": "blue",
            "data": "33"
          },
          "@Comments": {
            "type": "blue",
            "data": "Derived from DM.BRTHDTC and DM.RFICDTC."
          }
        },
        "17": {
          "text": {
            "type": "blue",
            "data": "AGEU"
          },
          "name": {
            "type": "blue",
            "data": "Age Units"
          },
          "@TYPE": {
            "type": "blue",
            "data": "Char"
          },
          "@LENGTH": {
            "type": "blue",
            "data": "10"
          },
          "@ROLE": {
            "type": "blue",
            "data": "Variable Qualifier"
          },
          "@CORE": {
            "type": "blue",
            "data": "Exp"
          },
          "@CONTROLLED": {
            "type": "blue",
            "data": "(AGEU)"
          },
          "description": {
            "type": "blue",
            "data": ""
          },
          "@ORIGIN": {
            "type": "blue",
            "data": "Assigned"
          },
          "@ORDER": {
            "type": "blue",
            "data": "34"
          },
          "@Comments": {
            "type": "blue",
            "data": ""
          }
        },
        "18": {
          "text": {
            "type": "blue",
            "data": "SEX"
          },
          "name": {
            "type": "blue",
            "data": "Sex"
          },
          "@TYPE": {
            "type": "blue",
            "data": "Char"
          },
          "@LENGTH": {
            "type": "blue",
            "data": "2"
          },
          "@ROLE": {
            "type": "blue",
            "data": "Record Qualifier"
          },
          "@CORE": {
            "type": "blue",
            "data": "Req"
          },
          "@CONTROLLED": {
            "type": "blue",
            "data": "(SEX)"
          },
          "description": {
            "type": "blue",
            "data": ""
          },
          "@ORIGIN": {
            "type": "blue",
            "data": "Assigned"
          },
          "@ORDER": {
            "type": "blue",
            "data": "35"
          },
          "@Comments": {
            "type": "blue",
            "data": ""
          }
        },
        "19": {
          "text": {
            "type": "blue",
            "data": "RACE"
          },
          "name": {
            "type": "blue",
            "data": "Race"
          },
          "@TYPE": {
            "type": "blue",
            "data": "Char"
          },
          "@LENGTH": {
            "type": "blue",
            "data": "41"
          },
          "@ROLE": {
            "type": "blue",
            "data": "Record Qualifier"
          },
          "@CORE": {
            "type": "blue",
            "data": "Exp"
          },
          "@CONTROLLED": {
            "type": "blue",
            "data": "(RACE)"
          },
          "description": {
            "type": "blue",
            "data": ""
          },
          "@ORIGIN": {
            "type": "blue",
            "data": "Assigned"
          },
          "@ORDER": {
            "type": "blue",
            "data": "36"
          },
          "@Comments": {
            "type": "blue",
            "data": ""
          }
        },
        "20": {
          "text": {
            "type": "blue",
            "data": "ETHNIC"
          },
          "name": {
            "type": "blue",
            "data": "Ethnicity"
          },
          "@TYPE": {
            "type": "blue",
            "data": "Char"
          },
          "@LENGTH": {
            "type": "blue",
            "data": "50"
          },
          "@ROLE": {
            "type": "blue",
            "data": "Record Qualifier"
          },
          "@CORE": {
            "type": "blue",
            "data": "Perm"
          },
          "@CONTROLLED": {
            "type": "blue",
            "data": "(ETHNIC)"
          },
          "description": {
            "type": "blue",
            "data": ""
          },
          "@ORIGIN": {
            "type": "blue",
            "data": "Assigned"
          },
          "@ORDER": {
            "type": "blue",
            "data": "37"
          },
          "@Comments": {
            "type": "blue",
            "data": ""
          }
        },
        "21": {
          "text": {
            "type": "blue",
            "data": "ARMCD"
          },
          "name": {
            "type": "blue",
            "data": "Planned Arm Code"
          },
          "@TYPE": {
            "type": "blue",
            "data": "Char"
          },
          "@LENGTH": {
            "type": "blue",
            "data": "20"
          },
          "@ROLE": {
            "type": "blue",
            "data": "Record Qualifier"
          },
          "@CORE": {
            "type": "blue",
            "data": "Req"
          },
          "@CONTROLLED": {
            "type": "blue",
            "data": ""
          },
          "description": {
            "type": "blue",
            "data": ""
          },
          "@ORIGIN": {
            "type": "blue",
            "data": "Derived"
          },
          "@ORDER": {
            "type": "blue",
            "data": "38"
          },
          "@Comments": {
            "type": "blue",
            "data": "Derived from arm code in TRIAL ARM (TA) based on Randomization Number."
          }
        },
        "22": {
          "text": {
            "type": "blue",
            "data": "ARM"
          },
          "name": {
            "type": "blue",
            "data": "Description of Planned Arm"
          },
          "@TYPE": {
            "type": "blue",
            "data": "Char"
          },
          "@LENGTH": {
            "type": "blue",
            "data": "200"
          },
          "@ROLE": {
            "type": "blue",
            "data": "Synonym Qualifier"
          },
          "@CORE": {
            "type": "blue",
            "data": "Req"
          },
          "@CONTROLLED": {
            "type": "blue",
            "data": ""
          },
          "description": {
            "type": "blue",
            "data": ""
          },
          "@ORIGIN": {
            "type": "blue",
            "data": "Derived"
          },
          "@ORDER": {
            "type": "blue",
            "data": "39"
          },
          "@Comments": {
            "type": "blue",
            "data": "Derived from description of arm in TRIAL ARM (TA) based on Randomization Number."
          }
        },
        "23": {
          "text": {
            "type": "blue",
            "data": "ACTARMCD"
          },
          "name": {
            "type": "blue",
            "data": "Actual Arm Code"
          },
          "@TYPE": {
            "type": "blue",
            "data": "Char"
          },
          "@LENGTH": {
            "type": "blue",
            "data": "20"
          },
          "@ROLE": {
            "type": "blue",
            "data": "Record Qualifier"
          },
          "@CORE": {
            "type": "blue",
            "data": "Req"
          },
          "@CONTROLLED": {
            "type": "blue",
            "data": ""
          },
          "description": {
            "type": "blue",
            "data": ""
          },
          "@ORIGIN": {
            "type": "blue",
            "data": "Derived"
          },
          "@ORDER": {
            "type": "blue",
            "data": "40"
          },
          "@Comments": {
            "type": "blue",
            "data": "Derived from arm code in Trial Arm (TA) based on Actual Assignment."
          }
        },
        "24": {
          "text": {
            "type": "blue",
            "data": "ACTARM"
          },
          "name": {
            "type": "blue",
            "data": "Description of Actual Arm"
          },
          "@TYPE": {
            "type": "blue",
            "data": "Char"
          },
          "@LENGTH": {
            "type": "blue",
            "data": "200"
          },
          "@ROLE": {
            "type": "blue",
            "data": "Synonym Qualifier"
          },
          "@CORE": {
            "type": "blue",
            "data": "Req"
          },
          "@CONTROLLED": {
            "type": "blue",
            "data": ""
          },
          "description": {
            "type": "blue",
            "data": ""
          },
          "@ORIGIN": {
            "type": "blue",
            "data": "Derived"
          },
          "@ORDER": {
            "type": "blue",
            "data": "41"
          },
          "@Comments": {
            "type": "blue",
            "data": "Derived from description of arm in TRIAL ARM (TA) based on Actual Assignment."
          }
        },
        "25": {
          "text": {
            "type": "blue",
            "data": "COUNTRY"
          },
          "name": {
            "type": "blue",
            "data": "Country"
          },
          "@TYPE": {
            "type": "blue",
            "data": "Char"
          },
          "@LENGTH": {
            "type": "blue",
            "data": "3"
          },
          "@ROLE": {
            "type": "blue",
            "data": "Record Qualifier"
          },
          "@CORE": {
            "type": "blue",
            "data": "Req"
          },
          "@CONTROLLED": {
            "type": "blue",
            "data": "(COUNTRY) ISO 3166"
          },
          "description": {
            "type": "blue",
            "data": ""
          },
          "@ORIGIN": {
            "type": "blue",
            "data": "Assigned"
          },
          "@ORDER": {
            "type": "blue",
            "data": "42"
          },
          "@Comments": {
            "type": "blue",
            "data": ""
          }
        },
        "26": {
          "text": {
            "type": "blue",
            "data": "DMDTC"
          },
          "name": {
            "type": "blue",
            "data": "Date/Time of Collection"
          },
          "@TYPE": {
            "type": "blue",
            "data": "Char"
          },
          "@LENGTH": {
            "type": "blue",
            "data": "20"
          },
          "@ROLE": {
            "type": "blue",
            "data": "Timing"
          },
          "@CORE": {
            "type": "blue",
            "data": "Perm"
          },
          "@CONTROLLED": {
            "type": "blue",
            "data": "ISO 8601"
          },
          "description": {
            "type": "blue",
            "data": ""
          },
          "@ORIGIN": {
            "type": "blue",
            "data": "Assigned"
          },
          "@ORDER": {
            "type": "blue",
            "data": "105"
          },
          "@Comments": {
            "type": "blue",
            "data": ""
          }
        },
        "27": {
          "text": {
            "type": "blue",
            "data": "DMDY"
          },
          "name": {
            "type": "blue",
            "data": "Study Day of Collection"
          },
          "@TYPE": {
            "type": "blue",
            "data": "Num"
          },
          "@LENGTH": {
            "type": "blue",
            "data": "8"
          },
          "@ROLE": {
            "type": "blue",
            "data": "Timing"
          },
          "@CORE": {
            "type": "blue",
            "data": "Perm"
          },
          "@CONTROLLED": {
            "type": "blue",
            "data": ""
          },
          "description": {
            "type": "blue",
            "data": ""
          },
          "@ORIGIN": {
            "type": "blue",
            "data": "Derived"
          },
          "@ORDER": {
            "type": "blue",
            "data": "108"
          },
          "@Comments": {
            "type": "blue",
            "data": "Relative study day between <DMDTC> and DM.RFSTDTC. Add 1 if the difference is greater than or equal to 0."
          }
        }
      },
      "type": {
        "type": "green"
      }
    },
    "1": {
      "name": {
        "type": "blue",
        "data": "CO"
      },
      "text": {
        "type": "blue",
        "data": "Comments"
      },
      "structure": {
        "type": "blue",
        "data": "One record per comment per subject"
      },
      "class": {
        "type": "blue",
        "data": "Special Purpose Domains"
      },
      "description": {
        "type": "blue",
        "data": ""
      },
      "children": {
        "0": {
          "text": {
            "type": "blue",
            "data": "STUDYID"
          },
          "name": {
            "type": "blue",
            "data": "Study Identifier"
          },
          "@TYPE": {
            "type": "blue",
            "data": "Char"
          },
          "@LENGTH": {
            "type": "blue",
            "data": "20"
          },
          "@ROLE": {
            "type": "blue",
            "data": "Identifier"
          },
          "@CORE": {
            "type": "blue",
            "data": "Req"
          },
          "@CONTROLLED": {
            "type": "blue",
            "data": ""
          },
          "description": {
            "type": "blue",
            "data": ""
          },
          "@ORIGIN": {
            "type": "blue",
            "data": "Assigned"
          },
          "@ORDER": {
            "type": "blue",
            "data": "1"
          },
          "@Comments": {
            "type": "blue",
            "data": ""
          }
        },
        "1": {
          "text": {
            "type": "blue",
            "data": "DOMAIN"
          },
          "name": {
            "type": "blue",
            "data": "Domain Abbreviation"
          },
          "@TYPE": {
            "type": "blue",
            "data": "Char"
          },
          "@LENGTH": {
            "type": "blue",
            "data": "2"
          },
          "@ROLE": {
            "type": "blue",
            "data": "Identifier"
          },
          "@CORE": {
            "type": "blue",
            "data": "Req"
          },
          "@CONTROLLED": {
            "type": "blue",
            "data": ""
          },
          "description": {
            "type": "blue",
            "data": ""
          },
          "@ORIGIN": {
            "type": "blue",
            "data": "Assigned"
          },
          "@ORDER": {
            "type": "blue",
            "data": "2"
          },
          "@Comments": {
            "type": "blue",
            "data": ""
          }
        },
        "2": {
          "text": {
            "type": "blue",
            "data": "RDOMAIN"
          },
          "name": {
            "type": "blue",
            "data": "Related Domain Abbreviation"
          },
          "@TYPE": {
            "type": "blue",
            "data": "Char"
          },
          "@LENGTH": {
            "type": "blue",
            "data": "2"
          },
          "@ROLE": {
            "type": "blue",
            "data": "Record Qualifier"
          },
          "@CORE": {
            "type": "blue",
            "data": "Perm"
          },
          "@CONTROLLED": {
            "type": "blue",
            "data": ""
          },
          "description": {
            "type": "blue",
            "data": ""
          },
          "@ORIGIN": {
            "type": "blue",
            "data": "Assigned"
          },
          "@ORDER": {
            "type": "blue",
            "data": "3"
          },
          "@Comments": {
            "type": "blue",
            "data": ""
          }
        },
        "3": {
          "text": {
            "type": "blue",
            "data": "USUBJID"
          },
          "name": {
            "type": "blue",
            "data": "Unique Subject Identifier"
          },
          "@TYPE": {
            "type": "blue",
            "data": "Char"
          },
          "@LENGTH": {
            "type": "blue",
            "data": "25"
          },
          "@ROLE": {
            "type": "blue",
            "data": "Identifier"
          },
          "@CORE": {
            "type": "blue",
            "data": "Req"
          },
          "@CONTROLLED": {
            "type": "blue",
            "data": ""
          },
          "description": {
            "type": "blue",
            "data": ""
          },
          "@ORIGIN": {
            "type": "blue",
            "data": "Derived"
          },
          "@ORDER": {
            "type": "blue",
            "data": "4"
          },
          "@Comments": {
            "type": "blue",
            "data": "Concatenate STUDYID, SITEID and SUBJID, separated by \"-\"."
          }
        },
        "4": {
          "text": {
            "type": "blue",
            "data": "COSEQ"
          },
          "name": {
            "type": "blue",
            "data": "Sequence Number"
          },
          "@TYPE": {
            "type": "blue",
            "data": "Num"
          },
          "@LENGTH": {
            "type": "blue",
            "data": "8"
          },
          "@ROLE": {
            "type": "blue",
            "data": "Identifier"
          },
          "@CORE": {
            "type": "blue",
            "data": "Req"
          },
          "@CONTROLLED": {
            "type": "blue",
            "data": ""
          },
          "description": {
            "type": "blue",
            "data": ""
          },
          "@ORIGIN": {
            "type": "blue",
            "data": "Derived"
          },
          "@ORDER": {
            "type": "blue",
            "data": "8"
          },
          "@Comments": {
            "type": "blue",
            "data": "Sort by the key variables specified in the domain list. Assign COSEQ=1 to the first record and increment COSEQ by 1 for each additional record so that COSEQ is unique for each record within a USUBJID."
          }
        },
        "5": {
          "text": {
            "type": "blue",
            "data": "IDVAR"
          },
          "name": {
            "type": "blue",
            "data": "Identifying Variable"
          },
          "@TYPE": {
            "type": "blue",
            "data": "Char"
          },
          "@LENGTH": {
            "type": "blue",
            "data": "8"
          },
          "@ROLE": {
            "type": "blue",
            "data": "Record Qualifier"
          },
          "@CORE": {
            "type": "blue",
            "data": "Perm"
          },
          "@CONTROLLED": {
            "type": "blue",
            "data": ""
          },
          "description": {
            "type": "blue",
            "data": ""
          },
          "@ORIGIN": {
            "type": "blue",
            "data": "Assigned"
          },
          "@ORDER": {
            "type": "blue",
            "data": "24"
          },
          "@Comments": {
            "type": "blue",
            "data": ""
          }
        },
        "6": {
          "text": {
            "type": "blue",
            "data": "IDVARVAL"
          },
          "name": {
            "type": "blue",
            "data": "Identifying Variable Value"
          },
          "@TYPE": {
            "type": "blue",
            "data": "Char"
          },
          "@LENGTH": {
            "type": "blue",
            "data": "50"
          },
          "@ROLE": {
            "type": "blue",
            "data": "Record Qualifier"
          },
          "@CORE": {
            "type": "blue",
            "data": "Perm"
          },
          "@CONTROLLED": {
            "type": "blue",
            "data": ""
          },
          "description": {
            "type": "blue",
            "data": ""
          },
          "@ORIGIN": {
            "type": "blue",
            "data": "Assigned"
          },
          "@ORDER": {
            "type": "blue",
            "data": "25"
          },
          "@Comments": {
            "type": "blue",
            "data": ""
          }
        },
        "7": {
          "text": {
            "type": "blue",
            "data": "COREF"
          },
          "name": {
            "type": "blue",
            "data": "Comment Reference"
          },
          "@TYPE": {
            "type": "blue",
            "data": "Char"
          },
          "@LENGTH": {
            "type": "blue",
            "data": "200"
          },
          "@ROLE": {
            "type": "blue",
            "data": "Record Qualifier"
          },
          "@CORE": {
            "type": "blue",
            "data": "Perm"
          },
          "@CONTROLLED": {
            "type": "blue",
            "data": ""
          },
          "description": {
            "type": "blue",
            "data": ""
          },
          "@ORIGIN": {
            "type": "blue",
            "data": "Assigned"
          },
          "@ORDER": {
            "type": "blue",
            "data": "20"
          },
          "@Comments": {
            "type": "blue",
            "data": ""
          }
        },
        "8": {
          "text": {
            "type": "blue",
            "data": "COVAL"
          },
          "name": {
            "type": "blue",
            "data": "Comment"
          },
          "@TYPE": {
            "type": "blue",
            "data": "Char"
          },
          "@LENGTH": {
            "type": "blue",
            "data": "200"
          },
          "@ROLE": {
            "type": "blue",
            "data": "Topic"
          },
          "@CORE": {
            "type": "blue",
            "data": "Req"
          },
          "@CONTROLLED": {
            "type": "blue",
            "data": ""
          },
          "description": {
            "type": "blue",
            "data": ""
          },
          "@ORIGIN": {
            "type": "blue",
            "data": "Assigned"
          },
          "@ORDER": {
            "type": "blue",
            "data": "21"
          },
          "@Comments": {
            "type": "blue",
            "data": ""
          }
        },
        "9": {
          "text": {
            "type": "blue",
            "data": "COVAL1"
          },
          "name": {
            "type": "blue",
            "data": "Comment"
          },
          "@TYPE": {
            "type": "blue",
            "data": "Char"
          },
          "@LENGTH": {
            "type": "blue",
            "data": "200"
          },
          "@ROLE": {
            "type": "blue",
            "data": "Topic"
          },
          "@CORE": {
            "type": "blue",
            "data": "Perm"
          },
          "@CONTROLLED": {
            "type": "blue",
            "data": ""
          },
          "description": {
            "type": "blue",
            "data": ""
          },
          "@ORIGIN": {
            "type": "blue",
            "data": "Assigned"
          },
          "@ORDER": {
            "type": "blue",
            "data": "22"
          },
          "@Comments": {
            "type": "blue",
            "data": ""
          }
        },
        "10": {
          "text": {
            "type": "blue",
            "data": "COVAL2"
          },
          "name": {
            "type": "blue",
            "data": "Comment"
          },
          "@TYPE": {
            "type": "blue",
            "data": "Char"
          },
          "@LENGTH": {
            "type": "blue",
            "data": "200"
          },
          "@ROLE": {
            "type": "blue",
            "data": "Topic"
          },
          "@CORE": {
            "type": "blue",
            "data": "Perm"
          },
          "@CONTROLLED": {
            "type": "blue",
            "data": ""
          },
          "description": {
            "type": "blue",
            "data": ""
          },
          "@ORIGIN": {
            "type": "blue",
            "data": "Assigned"
          },
          "@ORDER": {
            "type": "blue",
            "data": "23"
          },
          "@Comments": {
            "type": "blue",
            "data": ""
          }
        },
        "11": {
          "text": {
            "type": "blue",
            "data": "COVAL3"
          },
          "name": {
            "type": "blue",
            "data": "Comment"
          },
          "@TYPE": {
            "type": "blue",
            "data": "Char"
          },
          "@LENGTH": {
            "type": "blue",
            "data": "200"
          },
          "@ROLE": {
            "type": "blue",
            "data": "Topic"
          },
          "@CORE": {
            "type": "blue",
            "data": "Perm"
          },
          "@CONTROLLED": {
            "type": "blue",
            "data": ""
          },
          "description": {
            "type": "blue",
            "data": ""
          },
          "@ORIGIN": {
            "type": "blue",
            "data": "Assigned"
          },
          "@ORDER": {
            "type": "blue",
            "data": "24"
          },
          "@Comments": {
            "type": "blue",
            "data": ""
          }
        },
        "12": {
          "text": {
            "type": "blue",
            "data": "COVAL4"
          },
          "name": {
            "type": "blue",
            "data": "Comment"
          },
          "@TYPE": {
            "type": "blue",
            "data": "Char"
          },
          "@LENGTH": {
            "type": "blue",
            "data": "200"
          },
          "@ROLE": {
            "type": "blue",
            "data": "Topic"
          },
          "@CORE": {
            "type": "blue",
            "data": "Perm"
          },
          "@CONTROLLED": {
            "type": "blue",
            "data": ""
          },
          "description": {
            "type": "blue",
            "data": ""
          },
          "@ORIGIN": {
            "type": "blue",
            "data": "Assigned"
          },
          "@ORDER": {
            "type": "blue",
            "data": "25"
          },
          "@Comments": {
            "type": "blue",
            "data": ""
          }
        },
        "13": {
          "text": {
            "type": "blue",
            "data": "COVAL5"
          },
          "name": {
            "type": "blue",
            "data": "Comment"
          },
          "@TYPE": {
            "type": "blue",
            "data": "Char"
          },
          "@LENGTH": {
            "type": "blue",
            "data": "200"
          },
          "@ROLE": {
            "type": "blue",
            "data": "Topic"
          },
          "@CORE": {
            "type": "blue",
            "data": "Perm"
          },
          "@CONTROLLED": {
            "type": "blue",
            "data": ""
          },
          "description": {
            "type": "blue",
            "data": ""
          },
          "@ORIGIN": {
            "type": "blue",
            "data": "Assigned"
          },
          "@ORDER": {
            "type": "blue",
            "data": "26"
          },
          "@Comments": {
            "type": "blue",
            "data": ""
          }
        },
        "14": {
          "text": {
            "type": "blue",
            "data": "COVAL6"
          },
          "name": {
            "type": "blue",
            "data": "Comment"
          },
          "@TYPE": {
            "type": "blue",
            "data": "Char"
          },
          "@LENGTH": {
            "type": "blue",
            "data": "200"
          },
          "@ROLE": {
            "type": "blue",
            "data": "Topic"
          },
          "@CORE": {
            "type": "blue",
            "data": "Perm"
          },
          "@CONTROLLED": {
            "type": "blue",
            "data": ""
          },
          "description": {
            "type": "blue",
            "data": ""
          },
          "@ORIGIN": {
            "type": "blue",
            "data": "Assigned"
          },
          "@ORDER": {
            "type": "blue",
            "data": "27"
          },
          "@Comments": {
            "type": "blue",
            "data": ""
          }
        },
        "15": {
          "text": {
            "type": "blue",
            "data": "COVAL7"
          },
          "name": {
            "type": "blue",
            "data": "Comment"
          },
          "@TYPE": {
            "type": "blue",
            "data": "Char"
          },
          "@LENGTH": {
            "type": "blue",
            "data": "200"
          },
          "@ROLE": {
            "type": "blue",
            "data": "Topic"
          },
          "@CORE": {
            "type": "blue",
            "data": "Perm"
          },
          "@CONTROLLED": {
            "type": "blue",
            "data": ""
          },
          "description": {
            "type": "blue",
            "data": ""
          },
          "@ORIGIN": {
            "type": "blue",
            "data": "Assigned"
          },
          "@ORDER": {
            "type": "blue",
            "data": "28"
          },
          "@Comments": {
            "type": "blue",
            "data": ""
          }
        },
        "16": {
          "text": {
            "type": "blue",
            "data": "COVAL8"
          },
          "name": {
            "type": "blue",
            "data": "Comment"
          },
          "@TYPE": {
            "type": "blue",
            "data": "Char"
          },
          "@LENGTH": {
            "type": "blue",
            "data": "200"
          },
          "@ROLE": {
            "type": "blue",
            "data": "Topic"
          },
          "@CORE": {
            "type": "blue",
            "data": "Perm"
          },
          "@CONTROLLED": {
            "type": "blue",
            "data": ""
          },
          "description": {
            "type": "blue",
            "data": ""
          },
          "@ORIGIN": {
            "type": "blue",
            "data": "Assigned"
          },
          "@ORDER": {
            "type": "blue",
            "data": "29"
          },
          "@Comments": {
            "type": "blue",
            "data": ""
          }
        },
        "17": {
          "text": {
            "type": "blue",
            "data": "COVAL9"
          },
          "name": {
            "type": "blue",
            "data": "Comment"
          },
          "@TYPE": {
            "type": "blue",
            "data": "Char"
          },
          "@LENGTH": {
            "type": "blue",
            "data": "200"
          },
          "@ROLE": {
            "type": "blue",
            "data": "Topic"
          },
          "@CORE": {
            "type": "blue",
            "data": "Perm"
          },
          "@CONTROLLED": {
            "type": "blue",
            "data": ""
          },
          "description": {
            "type": "blue",
            "data": ""
          },
          "@ORIGIN": {
            "type": "blue",
            "data": "Assigned"
          },
          "@ORDER": {
            "type": "blue",
            "data": "30"
          },
          "@Comments": {
            "type": "blue",
            "data": ""
          }
        },
        "18": {
          "text": {
            "type": "blue",
            "data": "COVAL10"
          },
          "name": {
            "type": "blue",
            "data": "Comment"
          },
          "@TYPE": {
            "type": "blue",
            "data": "Char"
          },
          "@LENGTH": {
            "type": "blue",
            "data": "200"
          },
          "@ROLE": {
            "type": "blue",
            "data": "Topic"
          },
          "@CORE": {
            "type": "blue",
            "data": "Perm"
          },
          "@CONTROLLED": {
            "type": "blue",
            "data": ""
          },
          "description": {
            "type": "blue",
            "data": ""
          },
          "@ORIGIN": {
            "type": "blue",
            "data": "Assigned"
          },
          "@ORDER": {
            "type": "blue",
            "data": "31"
          },
          "@Comments": {
            "type": "blue",
            "data": ""
          }
        },
        "19": {
          "text": {
            "type": "blue",
            "data": "COVAL11"
          },
          "name": {
            "type": "blue",
            "data": "Comment"
          },
          "@TYPE": {
            "type": "blue",
            "data": "Char"
          },
          "@LENGTH": {
            "type": "blue",
            "data": "200"
          },
          "@ROLE": {
            "type": "blue",
            "data": "Topic"
          },
          "@CORE": {
            "type": "blue",
            "data": "Perm"
          },
          "@CONTROLLED": {
            "type": "blue",
            "data": ""
          },
          "description": {
            "type": "blue",
            "data": ""
          },
          "@ORIGIN": {
            "type": "blue",
            "data": "Assigned"
          },
          "@ORDER": {
            "type": "blue",
            "data": "32"
          },
          "@Comments": {
            "type": "blue",
            "data": ""
          }
        },
        "20": {
          "text": {
            "type": "blue",
            "data": "COVAL12"
          },
          "name": {
            "type": "blue",
            "data": "Comment"
          },
          "@TYPE": {
            "type": "blue",
            "data": "Char"
          },
          "@LENGTH": {
            "type": "blue",
            "data": "200"
          },
          "@ROLE": {
            "type": "blue",
            "data": "Topic"
          },
          "@CORE": {
            "type": "blue",
            "data": "Perm"
          },
          "@CONTROLLED": {
            "type": "blue",
            "data": ""
          },
          "description": {
            "type": "blue",
            "data": ""
          },
          "@ORIGIN": {
            "type": "blue",
            "data": "Assigned"
          },
          "@ORDER": {
            "type": "blue",
            "data": "33"
          },
          "@Comments": {
            "type": "blue",
            "data": ""
          }
        },
        "21": {
          "text": {
            "type": "blue",
            "data": "COVAL13"
          },
          "name": {
            "type": "blue",
            "data": "Comment"
          },
          "@TYPE": {
            "type": "blue",
            "data": "Char"
          },
          "@LENGTH": {
            "type": "blue",
            "data": "200"
          },
          "@ROLE": {
            "type": "blue",
            "data": "Topic"
          },
          "@CORE": {
            "type": "blue",
            "data": "Perm"
          },
          "@CONTROLLED": {
            "type": "blue",
            "data": ""
          },
          "description": {
            "type": "blue",
            "data": ""
          },
          "@ORIGIN": {
            "type": "blue",
            "data": "Assigned"
          },
          "@ORDER": {
            "type": "blue",
            "data": "34"
          },
          "@Comments": {
            "type": "blue",
            "data": ""
          }
        },
        "22": {
          "text": {
            "type": "blue",
            "data": "COVAL14"
          },
          "name": {
            "type": "blue",
            "data": "Comment"
          },
          "@TYPE": {
            "type": "blue",
            "data": "Char"
          },
          "@LENGTH": {
            "type": "blue",
            "data": "200"
          },
          "@ROLE": {
            "type": "blue",
            "data": "Topic"
          },
          "@CORE": {
            "type": "blue",
            "data": "Perm"
          },
          "@CONTROLLED": {
            "type": "blue",
            "data": ""
          },
          "description": {
            "type": "blue",
            "data": ""
          },
          "@ORIGIN": {
            "type": "blue",
            "data": "Assigned"
          },
          "@ORDER": {
            "type": "blue",
            "data": "35"
          },
          "@Comments": {
            "type": "blue",
            "data": ""
          }
        },
        "23": {
          "text": {
            "type": "blue",
            "data": "COVAL15"
          },
          "name": {
            "type": "blue",
            "data": "Comment"
          },
          "@TYPE": {
            "type": "blue",
            "data": "Char"
          },
          "@LENGTH": {
            "type": "blue",
            "data": "200"
          },
          "@ROLE": {
            "type": "blue",
            "data": "Topic"
          },
          "@CORE": {
            "type": "blue",
            "data": "Perm"
          },
          "@CONTROLLED": {
            "type": "blue",
            "data": ""
          },
          "description": {
            "type": "blue",
            "data": ""
          },
          "@ORIGIN": {
            "type": "blue",
            "data": "Assigned"
          },
          "@ORDER": {
            "type": "blue",
            "data": "36"
          },
          "@Comments": {
            "type": "blue",
            "data": ""
          }
        },
        "24": {
          "text": {
            "type": "blue",
            "data": "COVAL16"
          },
          "name": {
            "type": "blue",
            "data": "Comment"
          },
          "@TYPE": {
            "type": "blue",
            "data": "Char"
          },
          "@LENGTH": {
            "type": "blue",
            "data": "200"
          },
          "@ROLE": {
            "type": "blue",
            "data": "Topic"
          },
          "@CORE": {
            "type": "blue",
            "data": "Perm"
          },
          "@CONTROLLED": {
            "type": "blue",
            "data": ""
          },
          "description": {
            "type": "blue",
            "data": ""
          },
          "@ORIGIN": {
            "type": "blue",
            "data": "Assigned"
          },
          "@ORDER": {
            "type": "blue",
            "data": "37"
          },
          "@Comments": {
            "type": "blue",
            "data": ""
          }
        },
        "25": {
          "text": {
            "type": "blue",
            "data": "COVAL17"
          },
          "name": {
            "type": "blue",
            "data": "Comment"
          },
          "@TYPE": {
            "type": "blue",
            "data": "Char"
          },
          "@LENGTH": {
            "type": "blue",
            "data": "200"
          },
          "@ROLE": {
            "type": "blue",
            "data": "Topic"
          },
          "@CORE": {
            "type": "blue",
            "data": "Perm"
          },
          "@CONTROLLED": {
            "type": "blue",
            "data": ""
          },
          "description": {
            "type": "blue",
            "data": ""
          },
          "@ORIGIN": {
            "type": "blue",
            "data": "Assigned"
          },
          "@ORDER": {
            "type": "blue",
            "data": "38"
          },
          "@Comments": {
            "type": "blue",
            "data": ""
          }
        },
        "26": {
          "text": {
            "type": "blue",
            "data": "COVAL18"
          },
          "name": {
            "type": "blue",
            "data": "Comment"
          },
          "@TYPE": {
            "type": "blue",
            "data": "Char"
          },
          "@LENGTH": {
            "type": "blue",
            "data": "200"
          },
          "@ROLE": {
            "type": "blue",
            "data": "Topic"
          },
          "@CORE": {
            "type": "blue",
            "data": "Perm"
          },
          "@CONTROLLED": {
            "type": "blue",
            "data": ""
          },
          "description": {
            "type": "blue",
            "data": ""
          },
          "@ORIGIN": {
            "type": "blue",
            "data": "Assigned"
          },
          "@ORDER": {
            "type": "blue",
            "data": "39"
          },
          "@Comments": {
            "type": "blue",
            "data": ""
          }
        },
        "27": {
          "text": {
            "type": "blue",
            "data": "COVAL19"
          },
          "name": {
            "type": "blue",
            "data": "Comment"
          },
          "@TYPE": {
            "type": "blue",
            "data": "Char"
          },
          "@LENGTH": {
            "type": "blue",
            "data": "200"
          },
          "@ROLE": {
            "type": "blue",
            "data": "Topic"
          },
          "@CORE": {
            "type": "blue",
            "data": "Perm"
          },
          "@CONTROLLED": {
            "type": "blue",
            "data": ""
          },
          "description": {
            "type": "blue",
            "data": ""
          },
          "@ORIGIN": {
            "type": "blue",
            "data": "Assigned"
          },
          "@ORDER": {
            "type": "blue",
            "data": "40"
          },
          "@Comments": {
            "type": "blue",
            "data": ""
          }
        },
        "28": {
          "text": {
            "type": "blue",
            "data": "COVAL20"
          },
          "name": {
            "type": "blue",
            "data": "Comment"
          },
          "@TYPE": {
            "type": "blue",
            "data": "Char"
          },
          "@LENGTH": {
            "type": "blue",
            "data": "200"
          },
          "@ROLE": {
            "type": "blue",
            "data": "Topic"
          },
          "@CORE": {
            "type": "blue",
            "data": "Perm"
          },
          "@CONTROLLED": {
            "type": "blue",
            "data": ""
          },
          "description": {
            "type": "blue",
            "data": ""
          },
          "@ORIGIN": {
            "type": "blue",
            "data": "Assigned"
          },
          "@ORDER": {
            "type": "blue",
            "data": "41"
          },
          "@Comments": {
            "type": "blue",
            "data": ""
          }
        },
        "29": {
          "text": {
            "type": "blue",
            "data": "COEVAL"
          },
          "name": {
            "type": "blue",
            "data": "Evaluator"
          },
          "@TYPE": {
            "type": "blue",
            "data": "Char"
          },
          "@LENGTH": {
            "type": "blue",
            "data": "20"
          },
          "@ROLE": {
            "type": "blue",
            "data": "Record Qualifier"
          },
          "@CORE": {
            "type": "blue",
            "data": "Perm"
          },
          "@CONTROLLED": {
            "type": "blue",
            "data": ""
          },
          "description": {
            "type": "blue",
            "data": ""
          },
          "@ORIGIN": {
            "type": "blue",
            "data": "Assigned"
          },
          "@ORDER": {
            "type": "blue",
            "data": "42"
          },
          "@Comments": {
            "type": "blue",
            "data": ""
          }
        },
        "30": {
          "text": {
            "type": "blue",
            "data": "CODTC"
          },
          "name": {
            "type": "blue",
            "data": "Date/Time of Comment"
          },
          "@TYPE": {
            "type": "blue",
            "data": "Char"
          },
          "@LENGTH": {
            "type": "blue",
            "data": "20"
          },
          "@ROLE": {
            "type": "blue",
            "data": "Timing"
          },
          "@CORE": {
            "type": "blue",
            "data": "Perm"
          },
          "@CONTROLLED": {
            "type": "blue",
            "data": "ISO 8601"
          },
          "description": {
            "type": "blue",
            "data": ""
          },
          "@ORIGIN": {
            "type": "blue",
            "data": "Assigned"
          },
          "@ORDER": {
            "type": "blue",
            "data": "105"
          },
          "@Comments": {
            "type": "blue",
            "data": ""
          }
        },
        "31": {
          "text": {
            "type": "blue",
            "data": "CODY"
          },
          "name": {
            "type": "blue",
            "data": "Study Day of Visit/Collection/Exam"
          },
          "@TYPE": {
            "type": "blue",
            "data": "Num"
          },
          "@LENGTH": {
            "type": "blue",
            "data": "8"
          },
          "@ROLE": {
            "type": "blue",
            "data": "Timing"
          },
          "@CORE": {
            "type": "blue",
            "data": "Perm"
          },
          "@CONTROLLED": {
            "type": "blue",
            "data": ""
          },
          "description": {
            "type": "blue",
            "data": ""
          },
          "@ORIGIN": {
            "type": "blue",
            "data": "Derived"
          },
          "@ORDER": {
            "type": "blue",
            "data": "108"
          },
          "@Comments": {
            "type": "blue",
            "data": "Relative study day between <CODTC> and DM.RFSTDTC. Add 1 if the difference is greater than or equal to 0."
          }
        }
      }
    },
    "2": {
      "name": {
        "type": "blue",
        "data": "SE"
      },
      "text": {
        "type": "blue",
        "data": "Subject Elements"
      },
      "structure": {
        "type": "blue",
        "data": "One record per actual Element per subject"
      },
      "class": {
        "type": "blue",
        "data": "Special Purpose Domains"
      },
      "description": {
        "type": "blue",
        "data": ""
      },
      "children": {
        "0": {
          "text": {
            "type": "blue",
            "data": "STUDYID"
          },
          "name": {
            "type": "blue",
            "data": "Study Identifier"
          },
          "@TYPE": {
            "type": "blue",
            "data": "Char"
          },
          "@LENGTH": {
            "type": "blue",
            "data": "20"
          },
          "@ROLE": {
            "type": "blue",
            "data": "Identifier"
          },
          "@CORE": {
            "type": "blue",
            "data": "Req"
          },
          "@CONTROLLED": {
            "type": "blue",
            "data": ""
          },
          "description": {
            "type": "blue",
            "data": ""
          },
          "@ORIGIN": {
            "type": "blue",
            "data": "Assigned"
          },
          "@ORDER": {
            "type": "blue",
            "data": "1"
          },
          "@Comments": {
            "type": "blue",
            "data": ""
          }
        },
        "1": {
          "text": {
            "type": "blue",
            "data": "DOMAIN"
          },
          "name": {
            "type": "blue",
            "data": "Domain Abbreviation"
          },
          "@TYPE": {
            "type": "blue",
            "data": "Char"
          },
          "@LENGTH": {
            "type": "blue",
            "data": "2"
          },
          "@ROLE": {
            "type": "blue",
            "data": "Identifier"
          },
          "@CORE": {
            "type": "blue",
            "data": "Req"
          },
          "@CONTROLLED": {
            "type": "blue",
            "data": ""
          },
          "description": {
            "type": "blue",
            "data": ""
          },
          "@ORIGIN": {
            "type": "blue",
            "data": "Assigned"
          },
          "@ORDER": {
            "type": "blue",
            "data": "2"
          },
          "@Comments": {
            "type": "blue",
            "data": ""
          }
        },
        "2": {
          "text": {
            "type": "blue",
            "data": "USUBJID"
          },
          "name": {
            "type": "blue",
            "data": "Unique Subject Identifier"
          },
          "@TYPE": {
            "type": "blue",
            "data": "Char"
          },
          "@LENGTH": {
            "type": "blue",
            "data": "25"
          },
          "@ROLE": {
            "type": "blue",
            "data": "Identifier"
          },
          "@CORE": {
            "type": "blue",
            "data": "Req"
          },
          "@CONTROLLED": {
            "type": "blue",
            "data": ""
          },
          "description": {
            "type": "blue",
            "data": ""
          },
          "@ORIGIN": {
            "type": "blue",
            "data": "Derived"
          },
          "@ORDER": {
            "type": "blue",
            "data": "4"
          },
          "@Comments": {
            "type": "blue",
            "data": "Concatenate STUDYID, SITEID and SUBJID, separated by \"-\"."
          }
        },
        "3": {
          "text": {
            "type": "blue",
            "data": "SESEQ"
          },
          "name": {
            "type": "blue",
            "data": "Sequence Number"
          },
          "@TYPE": {
            "type": "blue",
            "data": "Num"
          },
          "@LENGTH": {
            "type": "blue",
            "data": "8"
          },
          "@ROLE": {
            "type": "blue",
            "data": "Identifier"
          },
          "@CORE": {
            "type": "blue",
            "data": "Req"
          },
          "@CONTROLLED": {
            "type": "blue",
            "data": ""
          },
          "description": {
            "type": "blue",
            "data": ""
          },
          "@ORIGIN": {
            "type": "blue",
            "data": "Derived"
          },
          "@ORDER": {
            "type": "blue",
            "data": "8"
          },
          "@Comments": {
            "type": "blue",
            "data": "Sort by the key variables specified in the domain list. Assign SESEQ=1 to the first record and increment SESEQ by 1 for each additional record so that SESEQ is unique for each record within a USUBJID."
          }
        },
        "4": {
          "text": {
            "type": "blue",
            "data": "ETCD"
          },
          "name": {
            "type": "blue",
            "data": "Element Code"
          },
          "@TYPE": {
            "type": "blue",
            "data": "Char"
          },
          "@LENGTH": {
            "type": "blue",
            "data": "8"
          },
          "@ROLE": {
            "type": "blue",
            "data": "Topic"
          },
          "@CORE": {
            "type": "blue",
            "data": "Req"
          },
          "@CONTROLLED": {
            "type": "blue",
            "data": ""
          },
          "description": {
            "type": "blue",
            "data": ""
          },
          "@ORIGIN": {
            "type": "blue",
            "data": "Assigned"
          },
          "@ORDER": {
            "type": "blue",
            "data": "22"
          },
          "@Comments": {
            "type": "blue",
            "data": ""
          }
        },
        "5": {
          "text": {
            "type": "blue",
            "data": "ELEMENT"
          },
          "name": {
            "type": "blue",
            "data": "Description of Element"
          },
          "@TYPE": {
            "type": "blue",
            "data": "Char"
          },
          "@LENGTH": {
            "type": "blue",
            "data": "200"
          },
          "@ROLE": {
            "type": "blue",
            "data": "Synonym Qualifier"
          },
          "@CORE": {
            "type": "blue",
            "data": "Perm"
          },
          "@CONTROLLED": {
            "type": "blue",
            "data": ""
          },
          "description": {
            "type": "blue",
            "data": ""
          },
          "@ORIGIN": {
            "type": "blue",
            "data": "Assigned"
          },
          "@ORDER": {
            "type": "blue",
            "data": "23"
          },
          "@Comments": {
            "type": "blue",
            "data": ""
          }
        },
        "6": {
          "text": {
            "type": "blue",
            "data": "SESTDTC"
          },
          "name": {
            "type": "blue",
            "data": "Start Date/Time of Element"
          },
          "@TYPE": {
            "type": "blue",
            "data": "Char"
          },
          "@LENGTH": {
            "type": "blue",
            "data": "20"
          },
          "@ROLE": {
            "type": "blue",
            "data": "Timing"
          },
          "@CORE": {
            "type": "blue",
            "data": "Req"
          },
          "@CONTROLLED": {
            "type": "blue",
            "data": "ISO 8601"
          },
          "description": {
            "type": "blue",
            "data": ""
          },
          "@ORIGIN": {
            "type": "blue",
            "data": "Assigned"
          },
          "@ORDER": {
            "type": "blue",
            "data": "106"
          },
          "@Comments": {
            "type": "blue",
            "data": ""
          }
        },
        "7": {
          "text": {
            "type": "blue",
            "data": "SEENDTC"
          },
          "name": {
            "type": "blue",
            "data": "End Date/Time of Element"
          },
          "@TYPE": {
            "type": "blue",
            "data": "Char"
          },
          "@LENGTH": {
            "type": "blue",
            "data": "20"
          },
          "@ROLE": {
            "type": "blue",
            "data": "Timing"
          },
          "@CORE": {
            "type": "blue",
            "data": "Exp"
          },
          "@CONTROLLED": {
            "type": "blue",
            "data": "ISO 8601"
          },
          "description": {
            "type": "blue",
            "data": ""
          },
          "@ORIGIN": {
            "type": "blue",
            "data": "Assigned"
          },
          "@ORDER": {
            "type": "blue",
            "data": "107"
          },
          "@Comments": {
            "type": "blue",
            "data": ""
          }
        },
        "8": {
          "text": {
            "type": "blue",
            "data": "SESTDY"
          },
          "name": {
            "type": "blue",
            "data": "Study Day of Start of Observation"
          },
          "@TYPE": {
            "type": "blue",
            "data": "Num"
          },
          "@LENGTH": {
            "type": "blue",
            "data": "8"
          },
          "@ROLE": {
            "type": "blue",
            "data": "Timing"
          },
          "@CORE": {
            "type": "blue",
            "data": "Perm"
          },
          "@CONTROLLED": {
            "type": "blue",
            "data": ""
          },
          "description": {
            "type": "blue",
            "data": ""
          },
          "@ORIGIN": {
            "type": "blue",
            "data": "Derived"
          },
          "@ORDER": {
            "type": "blue",
            "data": "109"
          },
          "@Comments": {
            "type": "blue",
            "data": "Relative study day between <SESTDTC> and DM.RFSTDTC. Add 1 if the difference is greater than or equal to 0."
          }
        },
        "9": {
          "text": {
            "type": "blue",
            "data": "SEENDY"
          },
          "name": {
            "type": "blue",
            "data": "Study Day of End of Observation"
          },
          "@TYPE": {
            "type": "blue",
            "data": "Num"
          },
          "@LENGTH": {
            "type": "blue",
            "data": "8"
          },
          "@ROLE": {
            "type": "blue",
            "data": "Timing"
          },
          "@CORE": {
            "type": "blue",
            "data": "Perm"
          },
          "@CONTROLLED": {
            "type": "blue",
            "data": ""
          },
          "description": {
            "type": "blue",
            "data": ""
          },
          "@ORIGIN": {
            "type": "blue",
            "data": "Derived"
          },
          "@ORDER": {
            "type": "blue",
            "data": "110"
          },
          "@Comments": {
            "type": "blue",
            "data": "Relative study day between <SEENDTC> and DM.RFSTDTC. Add 1 if the difference is greater than or equal to 0."
          }
        },
        "10": {
          "text": {
            "type": "blue",
            "data": "TAETORD"
          },
          "name": {
            "type": "blue",
            "data": "Planned Order of Element within Arm"
          },
          "@TYPE": {
            "type": "blue",
            "data": "Num"
          },
          "@LENGTH": {
            "type": "blue",
            "data": "8"
          },
          "@ROLE": {
            "type": "blue",
            "data": "Timing"
          },
          "@CORE": {
            "type": "blue",
            "data": "Perm"
          },
          "@CONTROLLED": {
            "type": "blue",
            "data": ""
          },
          "description": {
            "type": "blue",
            "data": ""
          },
          "@ORIGIN": {
            "type": "blue",
            "data": "Assigned"
          },
          "@ORDER": {
            "type": "blue",
            "data": "103"
          },
          "@Comments": {
            "type": "blue",
            "data": ""
          }
        },
        "11": {
          "text": {
            "type": "blue",
            "data": "EPOCH"
          },
          "name": {
            "type": "blue",
            "data": "Epoch"
          },
          "@TYPE": {
            "type": "blue",
            "data": "Char"
          },
          "@LENGTH": {
            "type": "blue",
            "data": "50"
          },
          "@ROLE": {
            "type": "blue",
            "data": "Timing"
          },
          "@CORE": {
            "type": "blue",
            "data": "Perm"
          },
          "@CONTROLLED": {
            "type": "blue",
            "data": ""
          },
          "description": {
            "type": "blue",
            "data": ""
          },
          "@ORIGIN": {
            "type": "blue",
            "data": "Assigned"
          },
          "@ORDER": {
            "type": "blue",
            "data": "104"
          },
          "@Comments": {
            "type": "blue",
            "data": ""
          }
        },
        "12": {
          "text": {
            "type": "blue",
            "data": "SEUPDES"
          },
          "name": {
            "type": "blue",
            "data": "Description of Unplanned Element"
          },
          "@TYPE": {
            "type": "blue",
            "data": "Char"
          },
          "@LENGTH": {
            "type": "blue",
            "data": "200"
          },
          "@ROLE": {
            "type": "blue",
            "data": "Synonym Qualifier"
          },
          "@CORE": {
            "type": "blue",
            "data": "Perm"
          },
          "@CONTROLLED": {
            "type": "blue",
            "data": ""
          },
          "description": {
            "type": "blue",
            "data": ""
          },
          "@ORIGIN": {
            "type": "blue",
            "data": "Assigned"
          },
          "@ORDER": {
            "type": "blue",
            "data": "125"
          },
          "@Comments": {
            "type": "blue",
            "data": ""
          }
        }
      }
    },
    "3": {
      "name": {
        "type": "blue",
        "data": "SV"
      },
      "text": {
        "type": "blue",
        "data": "Subject Visits"
      },
      "structure": {
        "type": "blue",
        "data": "One record per actual visit per subject"
      },
      "class": {
        "type": "blue",
        "data": "Special Purpose Domains"
      },
      "description": {
        "type": "blue",
        "data": ""
      },
      "children": {
        "0": {
          "text": {
            "type": "blue",
            "data": "STUDYID"
          },
          "name": {
            "type": "blue",
            "data": "Study Identifier"
          },
          "@TYPE": {
            "type": "blue",
            "data": "Char"
          },
          "@LENGTH": {
            "type": "blue",
            "data": "20"
          },
          "@ROLE": {
            "type": "blue",
            "data": "Identifier"
          },
          "@CORE": {
            "type": "blue",
            "data": "Req"
          },
          "@CONTROLLED": {
            "type": "blue",
            "data": ""
          },
          "description": {
            "type": "blue",
            "data": ""
          },
          "@ORIGIN": {
            "type": "blue",
            "data": "Assigned"
          },
          "@ORDER": {
            "type": "blue",
            "data": "1"
          },
          "@Comments": {
            "type": "blue",
            "data": ""
          }
        },
        "1": {
          "text": {
            "type": "blue",
            "data": "DOMAIN"
          },
          "name": {
            "type": "blue",
            "data": "Domain Abbreviation"
          },
          "@TYPE": {
            "type": "blue",
            "data": "Char"
          },
          "@LENGTH": {
            "type": "blue",
            "data": "2"
          },
          "@ROLE": {
            "type": "blue",
            "data": "Identifier"
          },
          "@CORE": {
            "type": "blue",
            "data": "Req"
          },
          "@CONTROLLED": {
            "type": "blue",
            "data": ""
          },
          "description": {
            "type": "blue",
            "data": ""
          },
          "@ORIGIN": {
            "type": "blue",
            "data": "Assigned"
          },
          "@ORDER": {
            "type": "blue",
            "data": "2"
          },
          "@Comments": {
            "type": "blue",
            "data": ""
          }
        },
        "2": {
          "text": {
            "type": "blue",
            "data": "USUBJID"
          },
          "name": {
            "type": "blue",
            "data": "Unique Subject Identifier"
          },
          "@TYPE": {
            "type": "blue",
            "data": "Char"
          },
          "@LENGTH": {
            "type": "blue",
            "data": "25"
          },
          "@ROLE": {
            "type": "blue",
            "data": "Identifier"
          },
          "@CORE": {
            "type": "blue",
            "data": "Req"
          },
          "@CONTROLLED": {
            "type": "blue",
            "data": ""
          },
          "description": {
            "type": "blue",
            "data": ""
          },
          "@ORIGIN": {
            "type": "blue",
            "data": "Derived"
          },
          "@ORDER": {
            "type": "blue",
            "data": "4"
          },
          "@Comments": {
            "type": "blue",
            "data": "Concatenate STUDYID, SITEID and SUBJID, separated by \"-\"."
          }
        },
        "3": {
          "text": {
            "type": "blue",
            "data": "VISITNUM"
          },
          "name": {
            "type": "blue",
            "data": "Visit Number"
          },
          "@TYPE": {
            "type": "blue",
            "data": "Num"
          },
          "@LENGTH": {
            "type": "blue",
            "data": "8"
          },
          "@ROLE": {
            "type": "blue",
            "data": "Topic"
          },
          "@CORE": {
            "type": "blue",
            "data": "Req"
          },
          "@CONTROLLED": {
            "type": "blue",
            "data": ""
          },
          "description": {
            "type": "blue",
            "data": ""
          },
          "@ORIGIN": {
            "type": "blue",
            "data": "Assigned"
          },
          "@ORDER": {
            "type": "blue",
            "data": "100"
          },
          "@Comments": {
            "type": "blue",
            "data": ""
          }
        },
        "4": {
          "text": {
            "type": "blue",
            "data": "VISIT"
          },
          "name": {
            "type": "blue",
            "data": "Visit Name"
          },
          "@TYPE": {
            "type": "blue",
            "data": "Char"
          },
          "@LENGTH": {
            "type": "blue",
            "data": "200"
          },
          "@ROLE": {
            "type": "blue",
            "data": "Synonym Qualifier"
          },
          "@CORE": {
            "type": "blue",
            "data": "Perm"
          },
          "@CONTROLLED": {
            "type": "blue",
            "data": ""
          },
          "description": {
            "type": "blue",
            "data": ""
          },
          "@ORIGIN": {
            "type": "blue",
            "data": "Assigned"
          },
          "@ORDER": {
            "type": "blue",
            "data": "101"
          },
          "@Comments": {
            "type": "blue",
            "data": ""
          }
        },
        "5": {
          "text": {
            "type": "blue",
            "data": "VISITDY"
          },
          "name": {
            "type": "blue",
            "data": "Planned Study Day of Visit"
          },
          "@TYPE": {
            "type": "blue",
            "data": "Num"
          },
          "@LENGTH": {
            "type": "blue",
            "data": "8"
          },
          "@ROLE": {
            "type": "blue",
            "data": "Timing"
          },
          "@CORE": {
            "type": "blue",
            "data": "Perm"
          },
          "@CONTROLLED": {
            "type": "blue",
            "data": ""
          },
          "description": {
            "type": "blue",
            "data": ""
          },
          "@ORIGIN": {
            "type": "blue",
            "data": "Protocol"
          },
          "@ORDER": {
            "type": "blue",
            "data": "102"
          },
          "@Comments": {
            "type": "blue",
            "data": ""
          }
        },
        "6": {
          "text": {
            "type": "blue",
            "data": "SVDTC"
          },
          "name": {
            "type": "blue",
            "data": "Date/Time of Collection"
          },
          "@TYPE": {
            "type": "blue",
            "data": "Char"
          },
          "@LENGTH": {
            "type": "blue",
            "data": "20"
          },
          "@ROLE": {
            "type": "blue",
            "data": "Timing"
          },
          "@CORE": {
            "type": "blue",
            "data": "Perm"
          },
          "@CONTROLLED": {
            "type": "blue",
            "data": "ISO 8601"
          },
          "description": {
            "type": "blue",
            "data": ""
          },
          "@ORIGIN": {
            "type": "blue",
            "data": "Assigned"
          },
          "@ORDER": {
            "type": "blue",
            "data": "105"
          },
          "@Comments": {
            "type": "blue",
            "data": ""
          }
        },
        "7": {
          "text": {
            "type": "blue",
            "data": "SVSTDTC"
          },
          "name": {
            "type": "blue",
            "data": "Start Date/Time of Visit"
          },
          "@TYPE": {
            "type": "blue",
            "data": "Char"
          },
          "@LENGTH": {
            "type": "blue",
            "data": "20"
          },
          "@ROLE": {
            "type": "blue",
            "data": "Timing"
          },
          "@CORE": {
            "type": "blue",
            "data": "Exp"
          },
          "@CONTROLLED": {
            "type": "blue",
            "data": "ISO 8601"
          },
          "description": {
            "type": "blue",
            "data": ""
          },
          "@ORIGIN": {
            "type": "blue",
            "data": "Derived"
          },
          "@ORDER": {
            "type": "blue",
            "data": "106"
          },
          "@Comments": {
            "type": "blue",
            "data": "Equal to first date/time of visit"
          }
        },
        "8": {
          "text": {
            "type": "blue",
            "data": "SVENDTC"
          },
          "name": {
            "type": "blue",
            "data": "End Date/Time of Visit"
          },
          "@TYPE": {
            "type": "blue",
            "data": "Char"
          },
          "@LENGTH": {
            "type": "blue",
            "data": "20"
          },
          "@ROLE": {
            "type": "blue",
            "data": "Timing"
          },
          "@CORE": {
            "type": "blue",
            "data": "Exp"
          },
          "@CONTROLLED": {
            "type": "blue",
            "data": "ISO 8601"
          },
          "description": {
            "type": "blue",
            "data": ""
          },
          "@ORIGIN": {
            "type": "blue",
            "data": "Derived"
          },
          "@ORDER": {
            "type": "blue",
            "data": "107"
          },
          "@Comments": {
            "type": "blue",
            "data": "Equal to last date/time of visit"
          }
        },
        "9": {
          "text": {
            "type": "blue",
            "data": "SVDY"
          },
          "name": {
            "type": "blue",
            "data": "Study Day of Visit/Collection/Exam"
          },
          "@TYPE": {
            "type": "blue",
            "data": "Num"
          },
          "@LENGTH": {
            "type": "blue",
            "data": "8"
          },
          "@ROLE": {
            "type": "blue",
            "data": "Timing"
          },
          "@CORE": {
            "type": "blue",
            "data": "Perm"
          },
          "@CONTROLLED": {
            "type": "blue",
            "data": ""
          },
          "description": {
            "type": "blue",
            "data": ""
          },
          "@ORIGIN": {
            "type": "blue",
            "data": "Derived"
          },
          "@ORDER": {
            "type": "blue",
            "data": "108"
          },
          "@Comments": {
            "type": "blue",
            "data": "Relative study day between <SVDTC> and DM.RFSTDTC. Add 1 if the difference is greater than or equal to 0."
          }
        },
        "10": {
          "text": {
            "type": "blue",
            "data": "SVSTDY"
          },
          "name": {
            "type": "blue",
            "data": "Study Day of Start of Visit"
          },
          "@TYPE": {
            "type": "blue",
            "data": "Num"
          },
          "@LENGTH": {
            "type": "blue",
            "data": "8"
          },
          "@ROLE": {
            "type": "blue",
            "data": "Timing"
          },
          "@CORE": {
            "type": "blue",
            "data": "Perm"
          },
          "@CONTROLLED": {
            "type": "blue",
            "data": ""
          },
          "description": {
            "type": "blue",
            "data": ""
          },
          "@ORIGIN": {
            "type": "blue",
            "data": "Derived"
          },
          "@ORDER": {
            "type": "blue",
            "data": "109"
          },
          "@Comments": {
            "type": "blue",
            "data": "Relative study day between <SVSTDTC> and DM.RFSTDTC. Add 1 if the difference is greater than or equal to 0."
          }
        },
        "11": {
          "text": {
            "type": "blue",
            "data": "SVENDY"
          },
          "name": {
            "type": "blue",
            "data": "Study Day of End of Visit"
          },
          "@TYPE": {
            "type": "blue",
            "data": "Num"
          },
          "@LENGTH": {
            "type": "blue",
            "data": "8"
          },
          "@ROLE": {
            "type": "blue",
            "data": "Timing"
          },
          "@CORE": {
            "type": "blue",
            "data": "Perm"
          },
          "@CONTROLLED": {
            "type": "blue",
            "data": ""
          },
          "description": {
            "type": "blue",
            "data": ""
          },
          "@ORIGIN": {
            "type": "blue",
            "data": "Derived"
          },
          "@ORDER": {
            "type": "blue",
            "data": "110"
          },
          "@Comments": {
            "type": "blue",
            "data": "Relative study day between <SVENDTC> and DM.RFSTDTC. Add 1 if the difference is greater than or equal to 0."
          }
        },
        "12": {
          "text": {
            "type": "blue",
            "data": "SVUPDES"
          },
          "name": {
            "type": "blue",
            "data": "Description of Unplanned Visit"
          },
          "@TYPE": {
            "type": "blue",
            "data": "Char"
          },
          "@LENGTH": {
            "type": "blue",
            "data": "200"
          },
          "@ROLE": {
            "type": "blue",
            "data": "Synonym Qualifier"
          },
          "@CORE": {
            "type": "blue",
            "data": "Perm"
          },
          "@CONTROLLED": {
            "type": "blue",
            "data": ""
          },
          "description": {
            "type": "blue",
            "data": ""
          },
          "@ORIGIN": {
            "type": "blue",
            "data": "Assigned"
          },
          "@ORDER": {
            "type": "blue",
            "data": "125"
          },
          "@Comments": {
            "type": "blue",
            "data": ""
          }
        }
      }
    },
    "4": {
      "name": {
        "type": "blue",
        "data": "CM"
      },
      "text": {
        "type": "blue",
        "data": "Concomitant Medications"
      },
      "structure": {
        "type": "blue",
        "data": "One record per recorded medication occurrence or constant-dosing interval per subject"
      },
      "class": {
        "type": "blue",
        "data": "Interventions"
      },
      "description": {
        "type": "blue",
        "data": ""
      },
      "children": {
        "0": {
          "text": {
            "type": "blue",
            "data": "STUDYID"
          },
          "name": {
            "type": "blue",
            "data": "Study Identifier"
          },
          "@TYPE": {
            "type": "blue",
            "data": "Char"
          },
          "@LENGTH": {
            "type": "blue",
            "data": "20"
          },
          "@ROLE": {
            "type": "blue",
            "data": "Identifier"
          },
          "@CORE": {
            "type": "blue",
            "data": "Req"
          },
          "@CONTROLLED": {
            "type": "blue",
            "data": ""
          },
          "description": {
            "type": "blue",
            "data": ""
          },
          "@ORIGIN": {
            "type": "blue",
            "data": "Assigned"
          },
          "@ORDER": {
            "type": "blue",
            "data": "1"
          },
          "@Comments": {
            "type": "blue",
            "data": ""
          }
        },
        "1": {
          "text": {
            "type": "blue",
            "data": "DOMAIN"
          },
          "name": {
            "type": "blue",
            "data": "Domain Abbreviation"
          },
          "@TYPE": {
            "type": "blue",
            "data": "Char"
          },
          "@LENGTH": {
            "type": "blue",
            "data": "2"
          },
          "@ROLE": {
            "type": "blue",
            "data": "Identifier"
          },
          "@CORE": {
            "type": "blue",
            "data": "Req"
          },
          "@CONTROLLED": {
            "type": "blue",
            "data": ""
          },
          "description": {
            "type": "blue",
            "data": ""
          },
          "@ORIGIN": {
            "type": "blue",
            "data": "Assigned"
          },
          "@ORDER": {
            "type": "blue",
            "data": "2"
          },
          "@Comments": {
            "type": "blue",
            "data": ""
          }
        },
        "2": {
          "text": {
            "type": "blue",
            "data": "USUBJID"
          },
          "name": {
            "type": "blue",
            "data": "Unique Subject Identifier"
          },
          "@TYPE": {
            "type": "blue",
            "data": "Char"
          },
          "@LENGTH": {
            "type": "blue",
            "data": "25"
          },
          "@ROLE": {
            "type": "blue",
            "data": "Identifier"
          },
          "@CORE": {
            "type": "blue",
            "data": "Req"
          },
          "@CONTROLLED": {
            "type": "blue",
            "data": ""
          },
          "description": {
            "type": "blue",
            "data": ""
          },
          "@ORIGIN": {
            "type": "blue",
            "data": "Derived"
          },
          "@ORDER": {
            "type": "blue",
            "data": "4"
          },
          "@Comments": {
            "type": "blue",
            "data": "Concatenate STUDYID, SITEID and SUBJID, separated by \"-\"."
          }
        },
        "3": {
          "text": {
            "type": "blue",
            "data": "CMSEQ"
          },
          "name": {
            "type": "blue",
            "data": "Sequence Number"
          },
          "@TYPE": {
            "type": "blue",
            "data": "Num"
          },
          "@LENGTH": {
            "type": "blue",
            "data": "8"
          },
          "@ROLE": {
            "type": "blue",
            "data": "Identifier"
          },
          "@CORE": {
            "type": "blue",
            "data": "Req"
          },
          "@CONTROLLED": {
            "type": "blue",
            "data": ""
          },
          "description": {
            "type": "blue",
            "data": ""
          },
          "@ORIGIN": {
            "type": "blue",
            "data": "Derived"
          },
          "@ORDER": {
            "type": "blue",
            "data": "8"
          },
          "@Comments": {
            "type": "blue",
            "data": "Sort by the key variables specified in the domain list. Assign CMSEQ=1 to the first record and increment CMSEQ by 1 for each additional record so that CMSEQ is unique for each record within a USUBJID."
          }
        },
        "4": {
          "text": {
            "type": "blue",
            "data": "CMGRPID"
          },
          "name": {
            "type": "blue",
            "data": "Group ID"
          },
          "@TYPE": {
            "type": "blue",
            "data": "Char"
          },
          "@LENGTH": {
            "type": "blue",
            "data": "20"
          },
          "@ROLE": {
            "type": "blue",
            "data": "Identifier"
          },
          "@CORE": {
            "type": "blue",
            "data": "Perm"
          },
          "@CONTROLLED": {
            "type": "blue",
            "data": ""
          },
          "description": {
            "type": "blue",
            "data": ""
          },
          "@ORIGIN": {
            "type": "blue",
            "data": "Assigned"
          },
          "@ORDER": {
            "type": "blue",
            "data": "9"
          },
          "@Comments": {
            "type": "blue",
            "data": ""
          }
        },
        "5": {
          "text": {
            "type": "blue",
            "data": "CMSPID"
          },
          "name": {
            "type": "blue",
            "data": "Sponsor-Defined Identifier"
          },
          "@TYPE": {
            "type": "blue",
            "data": "Char"
          },
          "@LENGTH": {
            "type": "blue",
            "data": "20"
          },
          "@ROLE": {
            "type": "blue",
            "data": "Identifier"
          },
          "@CORE": {
            "type": "blue",
            "data": "Perm"
          },
          "@CONTROLLED": {
            "type": "blue",
            "data": ""
          },
          "description": {
            "type": "blue",
            "data": ""
          },
          "@ORIGIN": {
            "type": "blue",
            "data": "Assigned"
          },
          "@ORDER": {
            "type": "blue",
            "data": "11"
          },
          "@Comments": {
            "type": "blue",
            "data": ""
          }
        },
        "6": {
          "text": {
            "type": "blue",
            "data": "CMTRT"
          },
          "name": {
            "type": "blue",
            "data": "Reported Name of Drug, Med, or Therapy"
          },
          "@TYPE": {
            "type": "blue",
            "data": "Char"
          },
          "@LENGTH": {
            "type": "blue",
            "data": "200"
          },
          "@ROLE": {
            "type": "blue",
            "data": "Topic"
          },
          "@CORE": {
            "type": "blue",
            "data": "Req"
          },
          "@CONTROLLED": {
            "type": "blue",
            "data": ""
          },
          "description": {
            "type": "blue",
            "data": ""
          },
          "@ORIGIN": {
            "type": "blue",
            "data": "Assigned"
          },
          "@ORDER": {
            "type": "blue",
            "data": "20"
          },
          "@Comments": {
            "type": "blue",
            "data": ""
          }
        },
        "7": {
          "text": {
            "type": "blue",
            "data": "CMMODIFY"
          },
          "name": {
            "type": "blue",
            "data": "Modified Reported Name"
          },
          "@TYPE": {
            "type": "blue",
            "data": "Char"
          },
          "@LENGTH": {
            "type": "blue",
            "data": "200"
          },
          "@ROLE": {
            "type": "blue",
            "data": "Synonym Qualifier"
          },
          "@CORE": {
            "type": "blue",
            "data": "Perm"
          },
          "@CONTROLLED": {
            "type": "blue",
            "data": ""
          },
          "description": {
            "type": "blue",
            "data": ""
          },
          "@ORIGIN": {
            "type": "blue",
            "data": "Assigned"
          },
          "@ORDER": {
            "type": "blue",
            "data": "21"
          },
          "@Comments": {
            "type": "blue",
            "data": ""
          }
        },
        "8": {
          "text": {
            "type": "blue",
            "data": "CMDECOD"
          },
          "name": {
            "type": "blue",
            "data": "Standardized Medication Name"
          },
          "@TYPE": {
            "type": "blue",
            "data": "Char"
          },
          "@LENGTH": {
            "type": "blue",
            "data": "200"
          },
          "@ROLE": {
            "type": "blue",
            "data": "Synonym Qualifier"
          },
          "@CORE": {
            "type": "blue",
            "data": "Perm"
          },
          "@CONTROLLED": {
            "type": "blue",
            "data": "(DRUGDICT)"
          },
          "description": {
            "type": "blue",
            "data": ""
          },
          "@ORIGIN": {
            "type": "blue",
            "data": "Assigned"
          },
          "@ORDER": {
            "type": "blue",
            "data": "22"
          },
          "@Comments": {
            "type": "blue",
            "data": "WHODRUG Version 2010.09"
          }
        },
        "9": {
          "text": {
            "type": "blue",
            "data": "CMCAT"
          },
          "name": {
            "type": "blue",
            "data": "Category for Medication"
          },
          "@TYPE": {
            "type": "blue",
            "data": "Char"
          },
          "@LENGTH": {
            "type": "blue",
            "data": "200"
          },
          "@ROLE": {
            "type": "blue",
            "data": "Grouping Qualifier"
          },
          "@CORE": {
            "type": "blue",
            "data": "Perm"
          },
          "@CONTROLLED": {
            "type": "blue",
            "data": ""
          },
          "description": {
            "type": "blue",
            "data": ""
          },
          "@ORIGIN": {
            "type": "blue",
            "data": "Assigned"
          },
          "@ORDER": {
            "type": "blue",
            "data": "23"
          },
          "@Comments": {
            "type": "blue",
            "data": ""
          }
        },
        "10": {
          "text": {
            "type": "blue",
            "data": "CMSCAT"
          },
          "name": {
            "type": "blue",
            "data": "Subcategory for Medication"
          },
          "@TYPE": {
            "type": "blue",
            "data": "Char"
          },
          "@LENGTH": {
            "type": "blue",
            "data": "200"
          },
          "@ROLE": {
            "type": "blue",
            "data": "Grouping Qualifier"
          },
          "@CORE": {
            "type": "blue",
            "data": "Perm"
          },
          "@CONTROLLED": {
            "type": "blue",
            "data": ""
          },
          "description": {
            "type": "blue",
            "data": ""
          },
          "@ORIGIN": {
            "type": "blue",
            "data": "Assigned"
          },
          "@ORDER": {
            "type": "blue",
            "data": "24"
          },
          "@Comments": {
            "type": "blue",
            "data": ""
          }
        },
        "11": {
          "text": {
            "type": "blue",
            "data": "CMPRESP"
          },
          "name": {
            "type": "blue",
            "data": "CM Pre-Specified"
          },
          "@TYPE": {
            "type": "blue",
            "data": "Char"
          },
          "@LENGTH": {
            "type": "blue",
            "data": "1"
          },
          "@ROLE": {
            "type": "blue",
            "data": "Record Qualifier"
          },
          "@CORE": {
            "type": "blue",
            "data": "Perm"
          },
          "@CONTROLLED": {
            "type": "blue",
            "data": "(NY)"
          },
          "description": {
            "type": "blue",
            "data": ""
          },
          "@ORIGIN": {
            "type": "blue",
            "data": "Assigned"
          },
          "@ORDER": {
            "type": "blue",
            "data": "25"
          },
          "@Comments": {
            "type": "blue",
            "data": ""
          }
        },
        "12": {
          "text": {
            "type": "blue",
            "data": "CMOCCUR"
          },
          "name": {
            "type": "blue",
            "data": "CM Occurrence"
          },
          "@TYPE": {
            "type": "blue",
            "data": "Char"
          },
          "@LENGTH": {
            "type": "blue",
            "data": "1"
          },
          "@ROLE": {
            "type": "blue",
            "data": "Record Qualifier"
          },
          "@CORE": {
            "type": "blue",
            "data": "Perm"
          },
          "@CONTROLLED": {
            "type": "blue",
            "data": "(NY)"
          },
          "description": {
            "type": "blue",
            "data": ""
          },
          "@ORIGIN": {
            "type": "blue",
            "data": "Assigned"
          },
          "@ORDER": {
            "type": "blue",
            "data": "26"
          },
          "@Comments": {
            "type": "blue",
            "data": ""
          }
        },
        "13": {
          "text": {
            "type": "blue",
            "data": "CMSTAT"
          },
          "name": {
            "type": "blue",
            "data": "Completion Status"
          },
          "@TYPE": {
            "type": "blue",
            "data": "Char"
          },
          "@LENGTH": {
            "type": "blue",
            "data": "8"
          },
          "@ROLE": {
            "type": "blue",
            "data": "Record Qualifier"
          },
          "@CORE": {
            "type": "blue",
            "data": "Perm"
          },
          "@CONTROLLED": {
            "type": "blue",
            "data": "(ND)"
          },
          "description": {
            "type": "blue",
            "data": ""
          },
          "@ORIGIN": {
            "type": "blue",
            "data": "Assigned"
          },
          "@ORDER": {
            "type": "blue",
            "data": "27"
          },
          "@Comments": {
            "type": "blue",
            "data": ""
          }
        },
        "14": {
          "text": {
            "type": "blue",
            "data": "CMREASND"
          },
          "name": {
            "type": "blue",
            "data": "Reason Medication Not Collected"
          },
          "@TYPE": {
            "type": "blue",
            "data": "Char"
          },
          "@LENGTH": {
            "type": "blue",
            "data": "200"
          },
          "@ROLE": {
            "type": "blue",
            "data": "Record Qualifier"
          },
          "@CORE": {
            "type": "blue",
            "data": "Perm"
          },
          "@CONTROLLED": {
            "type": "blue",
            "data": ""
          },
          "description": {
            "type": "blue",
            "data": ""
          },
          "@ORIGIN": {
            "type": "blue",
            "data": "Assigned"
          },
          "@ORDER": {
            "type": "blue",
            "data": "28"
          },
          "@Comments": {
            "type": "blue",
            "data": ""
          }
        },
        "15": {
          "text": {
            "type": "blue",
            "data": "CMINDC"
          },
          "name": {
            "type": "blue",
            "data": "Indication"
          },
          "@TYPE": {
            "type": "blue",
            "data": "Char"
          },
          "@LENGTH": {
            "type": "blue",
            "data": "200"
          },
          "@ROLE": {
            "type": "blue",
            "data": "Record Qualifier"
          },
          "@CORE": {
            "type": "blue",
            "data": "Perm"
          },
          "@CONTROLLED": {
            "type": "blue",
            "data": ""
          },
          "description": {
            "type": "blue",
            "data": ""
          },
          "@ORIGIN": {
            "type": "blue",
            "data": "Assigned"
          },
          "@ORDER": {
            "type": "blue",
            "data": "29"
          },
          "@Comments": {
            "type": "blue",
            "data": ""
          }
        },
        "16": {
          "text": {
            "type": "blue",
            "data": "CMCLAS"
          },
          "name": {
            "type": "blue",
            "data": "Medication Class"
          },
          "@TYPE": {
            "type": "blue",
            "data": "Char"
          },
          "@LENGTH": {
            "type": "blue",
            "data": "200"
          },
          "@ROLE": {
            "type": "blue",
            "data": "Variable Qualifier"
          },
          "@CORE": {
            "type": "blue",
            "data": "Perm"
          },
          "@CONTROLLED": {
            "type": "blue",
            "data": ""
          },
          "description": {
            "type": "blue",
            "data": ""
          },
          "@ORIGIN": {
            "type": "blue",
            "data": "Assigned"
          },
          "@ORDER": {
            "type": "blue",
            "data": "30"
          },
          "@Comments": {
            "type": "blue",
            "data": "WHODRUG Version 2010.09"
          }
        },
        "17": {
          "text": {
            "type": "blue",
            "data": "CMCLASCD"
          },
          "name": {
            "type": "blue",
            "data": "Medication Class Code"
          },
          "@TYPE": {
            "type": "blue",
            "data": "Char"
          },
          "@LENGTH": {
            "type": "blue",
            "data": "8"
          },
          "@ROLE": {
            "type": "blue",
            "data": "Variable Qualifier"
          },
          "@CORE": {
            "type": "blue",
            "data": "Perm"
          },
          "@CONTROLLED": {
            "type": "blue",
            "data": ""
          },
          "description": {
            "type": "blue",
            "data": ""
          },
          "@ORIGIN": {
            "type": "blue",
            "data": "Assigned"
          },
          "@ORDER": {
            "type": "blue",
            "data": "31"
          },
          "@Comments": {
            "type": "blue",
            "data": "WHODRUG Version 2010.09"
          }
        },
        "18": {
          "text": {
            "type": "blue",
            "data": "CMDOSE"
          },
          "name": {
            "type": "blue",
            "data": "Dose per Administration"
          },
          "@TYPE": {
            "type": "blue",
            "data": "Num"
          },
          "@LENGTH": {
            "type": "blue",
            "data": "8"
          },
          "@ROLE": {
            "type": "blue",
            "data": "Record Qualifier"
          },
          "@CORE": {
            "type": "blue",
            "data": "Perm"
          },
          "@CONTROLLED": {
            "type": "blue",
            "data": ""
          },
          "description": {
            "type": "blue",
            "data": ""
          },
          "@ORIGIN": {
            "type": "blue",
            "data": "Assigned"
          },
          "@ORDER": {
            "type": "blue",
            "data": "32"
          },
          "@Comments": {
            "type": "blue",
            "data": ""
          }
        },
        "19": {
          "text": {
            "type": "blue",
            "data": "CMDOSTXT"
          },
          "name": {
            "type": "blue",
            "data": "Dose Description"
          },
          "@TYPE": {
            "type": "blue",
            "data": "Char"
          },
          "@LENGTH": {
            "type": "blue",
            "data": "200"
          },
          "@ROLE": {
            "type": "blue",
            "data": "Record Qualifier"
          },
          "@CORE": {
            "type": "blue",
            "data": "Perm"
          },
          "@CONTROLLED": {
            "type": "blue",
            "data": ""
          },
          "description": {
            "type": "blue",
            "data": ""
          },
          "@ORIGIN": {
            "type": "blue",
            "data": "Assigned"
          },
          "@ORDER": {
            "type": "blue",
            "data": "33"
          },
          "@Comments": {
            "type": "blue",
            "data": ""
          }
        },
        "20": {
          "text": {
            "type": "blue",
            "data": "CMDOSU"
          },
          "name": {
            "type": "blue",
            "data": "Dose Units"
          },
          "@TYPE": {
            "type": "blue",
            "data": "Char"
          },
          "@LENGTH": {
            "type": "blue",
            "data": "20"
          },
          "@ROLE": {
            "type": "blue",
            "data": "Variable Qualifier"
          },
          "@CORE": {
            "type": "blue",
            "data": "Perm"
          },
          "@CONTROLLED": {
            "type": "blue",
            "data": "(UNIT)"
          },
          "description": {
            "type": "blue",
            "data": ""
          },
          "@ORIGIN": {
            "type": "blue",
            "data": "Assigned"
          },
          "@ORDER": {
            "type": "blue",
            "data": "34"
          },
          "@Comments": {
            "type": "blue",
            "data": ""
          }
        },
        "21": {
          "text": {
            "type": "blue",
            "data": "CMDOSFRM"
          },
          "name": {
            "type": "blue",
            "data": "Dose Form"
          },
          "@TYPE": {
            "type": "blue",
            "data": "Char"
          },
          "@LENGTH": {
            "type": "blue",
            "data": "200"
          },
          "@ROLE": {
            "type": "blue",
            "data": "Variable Qualifier"
          },
          "@CORE": {
            "type": "blue",
            "data": "Perm"
          },
          "@CONTROLLED": {
            "type": "blue",
            "data": "(FRM)"
          },
          "description": {
            "type": "blue",
            "data": ""
          },
          "@ORIGIN": {
            "type": "blue",
            "data": "Assigned"
          },
          "@ORDER": {
            "type": "blue",
            "data": "35"
          },
          "@Comments": {
            "type": "blue",
            "data": ""
          }
        },
        "22": {
          "text": {
            "type": "blue",
            "data": "CMDOSFRQ"
          },
          "name": {
            "type": "blue",
            "data": "Dosing Frequency per Interval"
          },
          "@TYPE": {
            "type": "blue",
            "data": "Char"
          },
          "@LENGTH": {
            "type": "blue",
            "data": "50"
          },
          "@ROLE": {
            "type": "blue",
            "data": "Variable Qualifier"
          },
          "@CORE": {
            "type": "blue",
            "data": "Perm"
          },
          "@CONTROLLED": {
            "type": "blue",
            "data": "(FREQ)"
          },
          "description": {
            "type": "blue",
            "data": ""
          },
          "@ORIGIN": {
            "type": "blue",
            "data": "Assigned"
          },
          "@ORDER": {
            "type": "blue",
            "data": "36"
          },
          "@Comments": {
            "type": "blue",
            "data": ""
          }
        },
        "23": {
          "text": {
            "type": "blue",
            "data": "CMDOSTOT"
          },
          "name": {
            "type": "blue",
            "data": "Total Daily Dose"
          },
          "@TYPE": {
            "type": "blue",
            "data": "Num"
          },
          "@LENGTH": {
            "type": "blue",
            "data": "8"
          },
          "@ROLE": {
            "type": "blue",
            "data": "Record Qualifier"
          },
          "@CORE": {
            "type": "blue",
            "data": "Perm"
          },
          "@CONTROLLED": {
            "type": "blue",
            "data": ""
          },
          "description": {
            "type": "blue",
            "data": ""
          },
          "@ORIGIN": {
            "type": "blue",
            "data": "Assigned"
          },
          "@ORDER": {
            "type": "blue",
            "data": "37"
          },
          "@Comments": {
            "type": "blue",
            "data": ""
          }
        },
        "24": {
          "text": {
            "type": "blue",
            "data": "CMDOSRGM"
          },
          "name": {
            "type": "blue",
            "data": "Intended Dose Regimen"
          },
          "@TYPE": {
            "type": "blue",
            "data": "Char"
          },
          "@LENGTH": {
            "type": "blue",
            "data": "50"
          },
          "@ROLE": {
            "type": "blue",
            "data": "Variable Qualifier"
          },
          "@CORE": {
            "type": "blue",
            "data": "Perm"
          },
          "@CONTROLLED": {
            "type": "blue",
            "data": ""
          },
          "description": {
            "type": "blue",
            "data": ""
          },
          "@ORIGIN": {
            "type": "blue",
            "data": "Assigned"
          },
          "@ORDER": {
            "type": "blue",
            "data": "38"
          },
          "@Comments": {
            "type": "blue",
            "data": ""
          }
        },
        "25": {
          "text": {
            "type": "blue",
            "data": "CMROUTE"
          },
          "name": {
            "type": "blue",
            "data": "Route of Administration"
          },
          "@TYPE": {
            "type": "blue",
            "data": "Char"
          },
          "@LENGTH": {
            "type": "blue",
            "data": "50"
          },
          "@ROLE": {
            "type": "blue",
            "data": "Variable Qualifier"
          },
          "@CORE": {
            "type": "blue",
            "data": "Perm"
          },
          "@CONTROLLED": {
            "type": "blue",
            "data": "(ROUTE)"
          },
          "description": {
            "type": "blue",
            "data": ""
          },
          "@ORIGIN": {
            "type": "blue",
            "data": "Assigned"
          },
          "@ORDER": {
            "type": "blue",
            "data": "39"
          },
          "@Comments": {
            "type": "blue",
            "data": ""
          }
        },
        "26": {
          "text": {
            "type": "blue",
            "data": "CMSTDTC"
          },
          "name": {
            "type": "blue",
            "data": "Start Date/Time of Medication"
          },
          "@TYPE": {
            "type": "blue",
            "data": "Char"
          },
          "@LENGTH": {
            "type": "blue",
            "data": "20"
          },
          "@ROLE": {
            "type": "blue",
            "data": "Timing"
          },
          "@CORE": {
            "type": "blue",
            "data": "Perm"
          },
          "@CONTROLLED": {
            "type": "blue",
            "data": "ISO 8601"
          },
          "description": {
            "type": "blue",
            "data": ""
          },
          "@ORIGIN": {
            "type": "blue",
            "data": "Assigned"
          },
          "@ORDER": {
            "type": "blue",
            "data": "106"
          },
          "@Comments": {
            "type": "blue",
            "data": ""
          }
        },
        "27": {
          "text": {
            "type": "blue",
            "data": "CMENDTC"
          },
          "name": {
            "type": "blue",
            "data": "End Date/Time of Medication"
          },
          "@TYPE": {
            "type": "blue",
            "data": "Char"
          },
          "@LENGTH": {
            "type": "blue",
            "data": "20"
          },
          "@ROLE": {
            "type": "blue",
            "data": "Timing"
          },
          "@CORE": {
            "type": "blue",
            "data": "Perm"
          },
          "@CONTROLLED": {
            "type": "blue",
            "data": "ISO 8601"
          },
          "description": {
            "type": "blue",
            "data": ""
          },
          "@ORIGIN": {
            "type": "blue",
            "data": "Assigned"
          },
          "@ORDER": {
            "type": "blue",
            "data": "107"
          },
          "@Comments": {
            "type": "blue",
            "data": ""
          }
        },
        "28": {
          "text": {
            "type": "blue",
            "data": "CMSTDY"
          },
          "name": {
            "type": "blue",
            "data": "Study Day of Start of Medication"
          },
          "@TYPE": {
            "type": "blue",
            "data": "Num"
          },
          "@LENGTH": {
            "type": "blue",
            "data": "8"
          },
          "@ROLE": {
            "type": "blue",
            "data": "Timing"
          },
          "@CORE": {
            "type": "blue",
            "data": "Perm"
          },
          "@CONTROLLED": {
            "type": "blue",
            "data": ""
          },
          "description": {
            "type": "blue",
            "data": ""
          },
          "@ORIGIN": {
            "type": "blue",
            "data": "Derived"
          },
          "@ORDER": {
            "type": "blue",
            "data": "109"
          },
          "@Comments": {
            "type": "blue",
            "data": "Relative study day between <CMSTDTC> and DM.RFSTDTC. Add 1 if the difference is greater than or equal to 0."
          }
        },
        "29": {
          "text": {
            "type": "blue",
            "data": "CMENDY"
          },
          "name": {
            "type": "blue",
            "data": "Study Day of End of Medication"
          },
          "@TYPE": {
            "type": "blue",
            "data": "Num"
          },
          "@LENGTH": {
            "type": "blue",
            "data": "8"
          },
          "@ROLE": {
            "type": "blue",
            "data": "Timing"
          },
          "@CORE": {
            "type": "blue",
            "data": "Perm"
          },
          "@CONTROLLED": {
            "type": "blue",
            "data": ""
          },
          "description": {
            "type": "blue",
            "data": ""
          },
          "@ORIGIN": {
            "type": "blue",
            "data": "Derived"
          },
          "@ORDER": {
            "type": "blue",
            "data": "110"
          },
          "@Comments": {
            "type": "blue",
            "data": "Relative study day between <CMENDTC> and DM.RFSTDTC. Add 1 if the difference is greater than or equal to 0."
          }
        },
        "30": {
          "text": {
            "type": "blue",
            "data": "CMDUR"
          },
          "name": {
            "type": "blue",
            "data": "Duration of Medication"
          },
          "@TYPE": {
            "type": "blue",
            "data": "Char"
          },
          "@LENGTH": {
            "type": "blue",
            "data": "50"
          },
          "@ROLE": {
            "type": "blue",
            "data": "Timing"
          },
          "@CORE": {
            "type": "blue",
            "data": "Perm"
          },
          "@CONTROLLED": {
            "type": "blue",
            "data": "ISO 8601"
          },
          "description": {
            "type": "blue",
            "data": ""
          },
          "@ORIGIN": {
            "type": "blue",
            "data": "Assigned"
          },
          "@ORDER": {
            "type": "blue",
            "data": "111"
          },
          "@Comments": {
            "type": "blue",
            "data": ""
          }
        },
        "31": {
          "text": {
            "type": "blue",
            "data": "CMSTRF"
          },
          "name": {
            "type": "blue",
            "data": "Start Relative to Reference Period"
          },
          "@TYPE": {
            "type": "blue",
            "data": "Char"
          },
          "@LENGTH": {
            "type": "blue",
            "data": "12"
          },
          "@ROLE": {
            "type": "blue",
            "data": "Timing"
          },
          "@CORE": {
            "type": "blue",
            "data": "Perm"
          },
          "@CONTROLLED": {
            "type": "blue",
            "data": "(STENRF)"
          },
          "description": {
            "type": "blue",
            "data": ""
          },
          "@ORIGIN": {
            "type": "blue",
            "data": "Assigned"
          },
          "@ORDER": {
            "type": "blue",
            "data": "117"
          },
          "@Comments": {
            "type": "blue",
            "data": ""
          }
        },
        "32": {
          "text": {
            "type": "blue",
            "data": "CMENRF"
          },
          "name": {
            "type": "blue",
            "data": "End Relative to Reference Period"
          },
          "@TYPE": {
            "type": "blue",
            "data": "Char"
          },
          "@LENGTH": {
            "type": "blue",
            "data": "12"
          },
          "@ROLE": {
            "type": "blue",
            "data": "Timing"
          },
          "@CORE": {
            "type": "blue",
            "data": "Perm"
          },
          "@CONTROLLED": {
            "type": "blue",
            "data": "(STENRF)"
          },
          "description": {
            "type": "blue",
            "data": ""
          },
          "@ORIGIN": {
            "type": "blue",
            "data": "Assigned"
          },
          "@ORDER": {
            "type": "blue",
            "data": "118"
          },
          "@Comments": {
            "type": "blue",
            "data": ""
          }
        },
        "33": {
          "text": {
            "type": "blue",
            "data": "CMSTRTPT"
          },
          "name": {
            "type": "blue",
            "data": "Start Relative to Reference Time Point"
          },
          "@TYPE": {
            "type": "blue",
            "data": "Char"
          },
          "@LENGTH": {
            "type": "blue",
            "data": "12"
          },
          "@ROLE": {
            "type": "blue",
            "data": "Timing"
          },
          "@CORE": {
            "type": "blue",
            "data": "Perm"
          },
          "@CONTROLLED": {
            "type": "blue",
            "data": "(STENRF)"
          },
          "description": {
            "type": "blue",
            "data": ""
          },
          "@ORIGIN": {
            "type": "blue",
            "data": "Assigned"
          },
          "@ORDER": {
            "type": "blue",
            "data": "120"
          },
          "@Comments": {
            "type": "blue",
            "data": ""
          }
        },
        "34": {
          "text": {
            "type": "blue",
            "data": "CMSTTPT"
          },
          "name": {
            "type": "blue",
            "data": "Start Reference Time Point"
          },
          "@TYPE": {
            "type": "blue",
            "data": "Char"
          },
          "@LENGTH": {
            "type": "blue",
            "data": "200"
          },
          "@ROLE": {
            "type": "blue",
            "data": "Timing"
          },
          "@CORE": {
            "type": "blue",
            "data": "Perm"
          },
          "@CONTROLLED": {
            "type": "blue",
            "data": ""
          },
          "description": {
            "type": "blue",
            "data": ""
          },
          "@ORIGIN": {
            "type": "blue",
            "data": "Assigned"
          },
          "@ORDER": {
            "type": "blue",
            "data": "121"
          },
          "@Comments": {
            "type": "blue",
            "data": ""
          }
        },
        "35": {
          "text": {
            "type": "blue",
            "data": "CMENRTPT"
          },
          "name": {
            "type": "blue",
            "data": "End Relative to Reference Time Point"
          },
          "@TYPE": {
            "type": "blue",
            "data": "Char"
          },
          "@LENGTH": {
            "type": "blue",
            "data": "12"
          },
          "@ROLE": {
            "type": "blue",
            "data": "Timing"
          },
          "@CORE": {
            "type": "blue",
            "data": "Perm"
          },
          "@CONTROLLED": {
            "type": "blue",
            "data": "(STENRF)"
          },
          "description": {
            "type": "blue",
            "data": ""
          },
          "@ORIGIN": {
            "type": "blue",
            "data": "Assigned"
          },
          "@ORDER": {
            "type": "blue",
            "data": "122"
          },
          "@Comments": {
            "type": "blue",
            "data": ""
          }
        },
        "36": {
          "text": {
            "type": "blue",
            "data": "CMENTPT"
          },
          "name": {
            "type": "blue",
            "data": "End Reference Time Point"
          },
          "@TYPE": {
            "type": "blue",
            "data": "Char"
          },
          "@LENGTH": {
            "type": "blue",
            "data": "200"
          },
          "@ROLE": {
            "type": "blue",
            "data": "Timing"
          },
          "@CORE": {
            "type": "blue",
            "data": "Perm"
          },
          "@CONTROLLED": {
            "type": "blue",
            "data": ""
          },
          "description": {
            "type": "blue",
            "data": ""
          },
          "@ORIGIN": {
            "type": "blue",
            "data": "Assigned"
          },
          "@ORDER": {
            "type": "blue",
            "data": "123"
          },
          "@Comments": {
            "type": "blue",
            "data": ""
          }
        }
      }
    },
    "5": {
      "name": {
        "type": "blue",
        "data": "EX"
      },
      "text": {
        "type": "blue",
        "data": "Exposure"
      },
      "structure": {
        "type": "blue",
        "data": "One record per constant dosing interval per subject"
      },
      "class": {
        "type": "blue",
        "data": "Interventions"
      },
      "description": {
        "type": "blue",
        "data": ""
      },
      "children": {
        "0": {
          "text": {
            "type": "blue",
            "data": "STUDYID"
          },
          "name": {
            "type": "blue",
            "data": "Study Identifier"
          },
          "@TYPE": {
            "type": "blue",
            "data": "Char"
          },
          "@LENGTH": {
            "type": "blue",
            "data": "20"
          },
          "@ROLE": {
            "type": "blue",
            "data": "Identifier"
          },
          "@CORE": {
            "type": "blue",
            "data": "Req"
          },
          "@CONTROLLED": {
            "type": "blue",
            "data": ""
          },
          "description": {
            "type": "blue",
            "data": ""
          },
          "@ORIGIN": {
            "type": "blue",
            "data": "Assigned"
          },
          "@ORDER": {
            "type": "blue",
            "data": "1"
          },
          "@Comments": {
            "type": "blue",
            "data": ""
          }
        },
        "1": {
          "text": {
            "type": "blue",
            "data": "DOMAIN"
          },
          "name": {
            "type": "blue",
            "data": "Domain Abbreviation"
          },
          "@TYPE": {
            "type": "blue",
            "data": "Char"
          },
          "@LENGTH": {
            "type": "blue",
            "data": "2"
          },
          "@ROLE": {
            "type": "blue",
            "data": "Identifier"
          },
          "@CORE": {
            "type": "blue",
            "data": "Req"
          },
          "@CONTROLLED": {
            "type": "blue",
            "data": ""
          },
          "description": {
            "type": "blue",
            "data": ""
          },
          "@ORIGIN": {
            "type": "blue",
            "data": "Assigned"
          },
          "@ORDER": {
            "type": "blue",
            "data": "2"
          },
          "@Comments": {
            "type": "blue",
            "data": ""
          }
        },
        "2": {
          "text": {
            "type": "blue",
            "data": "USUBJID"
          },
          "name": {
            "type": "blue",
            "data": "Unique Subject Identifier"
          },
          "@TYPE": {
            "type": "blue",
            "data": "Char"
          },
          "@LENGTH": {
            "type": "blue",
            "data": "25"
          },
          "@ROLE": {
            "type": "blue",
            "data": "Identifier"
          },
          "@CORE": {
            "type": "blue",
            "data": "Req"
          },
          "@CONTROLLED": {
            "type": "blue",
            "data": ""
          },
          "description": {
            "type": "blue",
            "data": ""
          },
          "@ORIGIN": {
            "type": "blue",
            "data": "Derived"
          },
          "@ORDER": {
            "type": "blue",
            "data": "4"
          },
          "@Comments": {
            "type": "blue",
            "data": "Concatenate STUDYID, SITEID and SUBJID, separated by \"-\"."
          }
        },
        "3": {
          "text": {
            "type": "blue",
            "data": "EXSEQ"
          },
          "name": {
            "type": "blue",
            "data": "Sequence Number"
          },
          "@TYPE": {
            "type": "blue",
            "data": "Num"
          },
          "@LENGTH": {
            "type": "blue",
            "data": "8"
          },
          "@ROLE": {
            "type": "blue",
            "data": "Identifier"
          },
          "@CORE": {
            "type": "blue",
            "data": "Req"
          },
          "@CONTROLLED": {
            "type": "blue",
            "data": ""
          },
          "description": {
            "type": "blue",
            "data": ""
          },
          "@ORIGIN": {
            "type": "blue",
            "data": "Derived"
          },
          "@ORDER": {
            "type": "blue",
            "data": "8"
          },
          "@Comments": {
            "type": "blue",
            "data": "Sort by the key variables specified in the domain list. Assign EXSEQ=1 to the first record and increment EXSEQ by 1 for each additional record so that EXSEQ is unique for each record within a USUBJID."
          }
        },
        "4": {
          "text": {
            "type": "blue",
            "data": "EXGRPID"
          },
          "name": {
            "type": "blue",
            "data": "Group ID"
          },
          "@TYPE": {
            "type": "blue",
            "data": "Char"
          },
          "@LENGTH": {
            "type": "blue",
            "data": "20"
          },
          "@ROLE": {
            "type": "blue",
            "data": "Identifier"
          },
          "@CORE": {
            "type": "blue",
            "data": "Perm"
          },
          "@CONTROLLED": {
            "type": "blue",
            "data": ""
          },
          "description": {
            "type": "blue",
            "data": ""
          },
          "@ORIGIN": {
            "type": "blue",
            "data": "Assigned"
          },
          "@ORDER": {
            "type": "blue",
            "data": "9"
          },
          "@Comments": {
            "type": "blue",
            "data": ""
          }
        },
        "5": {
          "text": {
            "type": "blue",
            "data": "EXREFID"
          },
          "name": {
            "type": "blue",
            "data": "Reference ID"
          },
          "@TYPE": {
            "type": "blue",
            "data": "Char"
          },
          "@LENGTH": {
            "type": "blue",
            "data": "20"
          },
          "@ROLE": {
            "type": "blue",
            "data": "Identifier"
          },
          "@CORE": {
            "type": "blue",
            "data": "Perm"
          },
          "@CONTROLLED": {
            "type": "blue",
            "data": ""
          },
          "description": {
            "type": "blue",
            "data": ""
          },
          "@ORIGIN": {
            "type": "blue",
            "data": "Assigned"
          },
          "@ORDER": {
            "type": "blue",
            "data": "10"
          },
          "@Comments": {
            "type": "blue",
            "data": ""
          }
        },
        "6": {
          "text": {
            "type": "blue",
            "data": "EXSPID"
          },
          "name": {
            "type": "blue",
            "data": "Sponsor-Defined Identifier"
          },
          "@TYPE": {
            "type": "blue",
            "data": "Char"
          },
          "@LENGTH": {
            "type": "blue",
            "data": "20"
          },
          "@ROLE": {
            "type": "blue",
            "data": "Identifier"
          },
          "@CORE": {
            "type": "blue",
            "data": "Perm"
          },
          "@CONTROLLED": {
            "type": "blue",
            "data": ""
          },
          "description": {
            "type": "blue",
            "data": ""
          },
          "@ORIGIN": {
            "type": "blue",
            "data": "Assigned"
          },
          "@ORDER": {
            "type": "blue",
            "data": "11"
          },
          "@Comments": {
            "type": "blue",
            "data": ""
          }
        },
        "7": {
          "text": {
            "type": "blue",
            "data": "EXTRT"
          },
          "name": {
            "type": "blue",
            "data": "Name of Actual Treatment"
          },
          "@TYPE": {
            "type": "blue",
            "data": "Char"
          },
          "@LENGTH": {
            "type": "blue",
            "data": "200"
          },
          "@ROLE": {
            "type": "blue",
            "data": "Topic"
          },
          "@CORE": {
            "type": "blue",
            "data": "Req"
          },
          "@CONTROLLED": {
            "type": "blue",
            "data": ""
          },
          "description": {
            "type": "blue",
            "data": ""
          },
          "@ORIGIN": {
            "type": "blue",
            "data": "Assigned"
          },
          "@ORDER": {
            "type": "blue",
            "data": "20"
          },
          "@Comments": {
            "type": "blue",
            "data": ""
          }
        },
        "8": {
          "text": {
            "type": "blue",
            "data": "EXCAT"
          },
          "name": {
            "type": "blue",
            "data": "Category for Treatment"
          },
          "@TYPE": {
            "type": "blue",
            "data": "Char"
          },
          "@LENGTH": {
            "type": "blue",
            "data": "200"
          },
          "@ROLE": {
            "type": "blue",
            "data": "Grouping Qualifier"
          },
          "@CORE": {
            "type": "blue",
            "data": "Perm"
          },
          "@CONTROLLED": {
            "type": "blue",
            "data": ""
          },
          "description": {
            "type": "blue",
            "data": ""
          },
          "@ORIGIN": {
            "type": "blue",
            "data": "Assigned"
          },
          "@ORDER": {
            "type": "blue",
            "data": "23"
          },
          "@Comments": {
            "type": "blue",
            "data": ""
          }
        },
        "9": {
          "text": {
            "type": "blue",
            "data": "EXSCAT"
          },
          "name": {
            "type": "blue",
            "data": "Subcategory for Treatment"
          },
          "@TYPE": {
            "type": "blue",
            "data": "Char"
          },
          "@LENGTH": {
            "type": "blue",
            "data": "200"
          },
          "@ROLE": {
            "type": "blue",
            "data": "Grouping Qualifier"
          },
          "@CORE": {
            "type": "blue",
            "data": "Perm"
          },
          "@CONTROLLED": {
            "type": "blue",
            "data": ""
          },
          "description": {
            "type": "blue",
            "data": ""
          },
          "@ORIGIN": {
            "type": "blue",
            "data": "Assigned"
          },
          "@ORDER": {
            "type": "blue",
            "data": "24"
          },
          "@Comments": {
            "type": "blue",
            "data": ""
          }
        },
        "10": {
          "text": {
            "type": "blue",
            "data": "EXDOSE"
          },
          "name": {
            "type": "blue",
            "data": "Dose per Administration"
          },
          "@TYPE": {
            "type": "blue",
            "data": "Num"
          },
          "@LENGTH": {
            "type": "blue",
            "data": "8"
          },
          "@ROLE": {
            "type": "blue",
            "data": "Record Qualifier"
          },
          "@CORE": {
            "type": "blue",
            "data": "Exp"
          },
          "@CONTROLLED": {
            "type": "blue",
            "data": ""
          },
          "description": {
            "type": "blue",
            "data": ""
          },
          "@ORIGIN": {
            "type": "blue",
            "data": "Assigned"
          },
          "@ORDER": {
            "type": "blue",
            "data": "32"
          },
          "@Comments": {
            "type": "blue",
            "data": ""
          }
        },
        "11": {
          "text": {
            "type": "blue",
            "data": "EXDOSTXT"
          },
          "name": {
            "type": "blue",
            "data": "Dose Description"
          },
          "@TYPE": {
            "type": "blue",
            "data": "Char"
          },
          "@LENGTH": {
            "type": "blue",
            "data": "200"
          },
          "@ROLE": {
            "type": "blue",
            "data": "Record Qualifier"
          },
          "@CORE": {
            "type": "blue",
            "data": "Perm"
          },
          "@CONTROLLED": {
            "type": "blue",
            "data": ""
          },
          "description": {
            "type": "blue",
            "data": ""
          },
          "@ORIGIN": {
            "type": "blue",
            "data": "Assigned"
          },
          "@ORDER": {
            "type": "blue",
            "data": "33"
          },
          "@Comments": {
            "type": "blue",
            "data": ""
          }
        },
        "12": {
          "text": {
            "type": "blue",
            "data": "EXDOSU"
          },
          "name": {
            "type": "blue",
            "data": "Dose Units"
          },
          "@TYPE": {
            "type": "blue",
            "data": "Char"
          },
          "@LENGTH": {
            "type": "blue",
            "data": "20"
          },
          "@ROLE": {
            "type": "blue",
            "data": "Variable Qualifier"
          },
          "@CORE": {
            "type": "blue",
            "data": "Exp"
          },
          "@CONTROLLED": {
            "type": "blue",
            "data": "(UNIT)"
          },
          "description": {
            "type": "blue",
            "data": ""
          },
          "@ORIGIN": {
            "type": "blue",
            "data": "Protocol"
          },
          "@ORDER": {
            "type": "blue",
            "data": "34"
          },
          "@Comments": {
            "type": "blue",
            "data": ""
          }
        },
        "13": {
          "text": {
            "type": "blue",
            "data": "EXDOSFRM"
          },
          "name": {
            "type": "blue",
            "data": "Dose Form"
          },
          "@TYPE": {
            "type": "blue",
            "data": "Char"
          },
          "@LENGTH": {
            "type": "blue",
            "data": "200"
          },
          "@ROLE": {
            "type": "blue",
            "data": "Variable Qualifier"
          },
          "@CORE": {
            "type": "blue",
            "data": "Exp"
          },
          "@CONTROLLED": {
            "type": "blue",
            "data": "(FRM)"
          },
          "description": {
            "type": "blue",
            "data": ""
          },
          "@ORIGIN": {
            "type": "blue",
            "data": "Protocol"
          },
          "@ORDER": {
            "type": "blue",
            "data": "35"
          },
          "@Comments": {
            "type": "blue",
            "data": ""
          }
        },
        "14": {
          "text": {
            "type": "blue",
            "data": "EXDOSFRQ"
          },
          "name": {
            "type": "blue",
            "data": "Dosing Frequency per Interval"
          },
          "@TYPE": {
            "type": "blue",
            "data": "Char"
          },
          "@LENGTH": {
            "type": "blue",
            "data": "50"
          },
          "@ROLE": {
            "type": "blue",
            "data": "Variable Qualifier"
          },
          "@CORE": {
            "type": "blue",
            "data": "Perm"
          },
          "@CONTROLLED": {
            "type": "blue",
            "data": "(FREQ)"
          },
          "description": {
            "type": "blue",
            "data": ""
          },
          "@ORIGIN": {
            "type": "blue",
            "data": "Protocol"
          },
          "@ORDER": {
            "type": "blue",
            "data": "36"
          },
          "@Comments": {
            "type": "blue",
            "data": ""
          }
        },
        "15": {
          "text": {
            "type": "blue",
            "data": "EXDOSTOT"
          },
          "name": {
            "type": "blue",
            "data": "Total Daily Dose"
          },
          "@TYPE": {
            "type": "blue",
            "data": "Num"
          },
          "@LENGTH": {
            "type": "blue",
            "data": "8"
          },
          "@ROLE": {
            "type": "blue",
            "data": "Record Qualifier"
          },
          "@CORE": {
            "type": "blue",
            "data": "Perm"
          },
          "@CONTROLLED": {
            "type": "blue",
            "data": ""
          },
          "description": {
            "type": "blue",
            "data": ""
          },
          "@ORIGIN": {
            "type": "blue",
            "data": "Derived"
          },
          "@ORDER": {
            "type": "blue",
            "data": "37"
          },
          "@Comments": {
            "type": "blue",
            "data": "Derived from EXDOSE and EXDOSFRQ"
          }
        },
        "16": {
          "text": {
            "type": "blue",
            "data": "EXDOSRGM"
          },
          "name": {
            "type": "blue",
            "data": "Intended Dose Regimen"
          },
          "@TYPE": {
            "type": "blue",
            "data": "Char"
          },
          "@LENGTH": {
            "type": "blue",
            "data": "50"
          },
          "@ROLE": {
            "type": "blue",
            "data": "Variable Qualifier"
          },
          "@CORE": {
            "type": "blue",
            "data": "Perm"
          },
          "@CONTROLLED": {
            "type": "blue",
            "data": ""
          },
          "description": {
            "type": "blue",
            "data": ""
          },
          "@ORIGIN": {
            "type": "blue",
            "data": "Protocol"
          },
          "@ORDER": {
            "type": "blue",
            "data": "38"
          },
          "@Comments": {
            "type": "blue",
            "data": ""
          }
        },
        "17": {
          "text": {
            "type": "blue",
            "data": "EXROUTE"
          },
          "name": {
            "type": "blue",
            "data": "Route of Administration"
          },
          "@TYPE": {
            "type": "blue",
            "data": "Char"
          },
          "@LENGTH": {
            "type": "blue",
            "data": "50"
          },
          "@ROLE": {
            "type": "blue",
            "data": "Variable Qualifier"
          },
          "@CORE": {
            "type": "blue",
            "data": "Perm"
          },
          "@CONTROLLED": {
            "type": "blue",
            "data": "(ROUTE)"
          },
          "description": {
            "type": "blue",
            "data": ""
          },
          "@ORIGIN": {
            "type": "blue",
            "data": "Protocol"
          },
          "@ORDER": {
            "type": "blue",
            "data": "39"
          },
          "@Comments": {
            "type": "blue",
            "data": ""
          }
        },
        "18": {
          "text": {
            "type": "blue",
            "data": "EXLOT"
          },
          "name": {
            "type": "blue",
            "data": "Lot Number"
          },
          "@TYPE": {
            "type": "blue",
            "data": "Char"
          },
          "@LENGTH": {
            "type": "blue",
            "data": "50"
          },
          "@ROLE": {
            "type": "blue",
            "data": "Record Qualifier"
          },
          "@CORE": {
            "type": "blue",
            "data": "Perm"
          },
          "@CONTROLLED": {
            "type": "blue",
            "data": ""
          },
          "description": {
            "type": "blue",
            "data": ""
          },
          "@ORIGIN": {
            "type": "blue",
            "data": "Assigned"
          },
          "@ORDER": {
            "type": "blue",
            "data": "40"
          },
          "@Comments": {
            "type": "blue",
            "data": ""
          }
        },
        "19": {
          "text": {
            "type": "blue",
            "data": "EXLOC"
          },
          "name": {
            "type": "blue",
            "data": "Location of Dose Administration"
          },
          "@TYPE": {
            "type": "blue",
            "data": "Char"
          },
          "@LENGTH": {
            "type": "blue",
            "data": "200"
          },
          "@ROLE": {
            "type": "blue",
            "data": "Record Qualifier"
          },
          "@CORE": {
            "type": "blue",
            "data": "Perm"
          },
          "@CONTROLLED": {
            "type": "blue",
            "data": "(LOC)"
          },
          "description": {
            "type": "blue",
            "data": ""
          },
          "@ORIGIN": {
            "type": "blue",
            "data": "Protocol"
          },
          "@ORDER": {
            "type": "blue",
            "data": "41"
          },
          "@Comments": {
            "type": "blue",
            "data": ""
          }
        },
        "20": {
          "text": {
            "type": "blue",
            "data": "EXTRTV"
          },
          "name": {
            "type": "blue",
            "data": "Treatment Vehicle"
          },
          "@TYPE": {
            "type": "blue",
            "data": "Char"
          },
          "@LENGTH": {
            "type": "blue",
            "data": "200"
          },
          "@ROLE": {
            "type": "blue",
            "data": "Record Qualifier"
          },
          "@CORE": {
            "type": "blue",
            "data": "Perm"
          },
          "@CONTROLLED": {
            "type": "blue",
            "data": ""
          },
          "description": {
            "type": "blue",
            "data": ""
          },
          "@ORIGIN": {
            "type": "blue",
            "data": "Protocol"
          },
          "@ORDER": {
            "type": "blue",
            "data": "42"
          },
          "@Comments": {
            "type": "blue",
            "data": ""
          }
        },
        "21": {
          "text": {
            "type": "blue",
            "data": "EXVAMT"
          },
          "name": {
            "type": "blue",
            "data": "Treatment Vehicle Amount"
          },
          "@TYPE": {
            "type": "blue",
            "data": "Num"
          },
          "@LENGTH": {
            "type": "blue",
            "data": "8"
          },
          "@ROLE": {
            "type": "blue",
            "data": "Variable Qualifier"
          },
          "@CORE": {
            "type": "blue",
            "data": "Perm"
          },
          "@CONTROLLED": {
            "type": "blue",
            "data": ""
          },
          "description": {
            "type": "blue",
            "data": ""
          },
          "@ORIGIN": {
            "type": "blue",
            "data": "Protocol"
          },
          "@ORDER": {
            "type": "blue",
            "data": "43"
          },
          "@Comments": {
            "type": "blue",
            "data": ""
          }
        },
        "22": {
          "text": {
            "type": "blue",
            "data": "EXVAMTU"
          },
          "name": {
            "type": "blue",
            "data": "Treatment Vehicle Amount Units"
          },
          "@TYPE": {
            "type": "blue",
            "data": "Char"
          },
          "@LENGTH": {
            "type": "blue",
            "data": "20"
          },
          "@ROLE": {
            "type": "blue",
            "data": "Variable Qualifier"
          },
          "@CORE": {
            "type": "blue",
            "data": "Perm"
          },
          "@CONTROLLED": {
            "type": "blue",
            "data": "(UNIT)"
          },
          "description": {
            "type": "blue",
            "data": ""
          },
          "@ORIGIN": {
            "type": "blue",
            "data": "Protocol"
          },
          "@ORDER": {
            "type": "blue",
            "data": "44"
          },
          "@Comments": {
            "type": "blue",
            "data": ""
          }
        },
        "23": {
          "text": {
            "type": "blue",
            "data": "EXADJ"
          },
          "name": {
            "type": "blue",
            "data": "Reason for Dose Adjustment"
          },
          "@TYPE": {
            "type": "blue",
            "data": "Char"
          },
          "@LENGTH": {
            "type": "blue",
            "data": "200"
          },
          "@ROLE": {
            "type": "blue",
            "data": "Record Qualifier"
          },
          "@CORE": {
            "type": "blue",
            "data": "Perm"
          },
          "@CONTROLLED": {
            "type": "blue",
            "data": ""
          },
          "description": {
            "type": "blue",
            "data": ""
          },
          "@ORIGIN": {
            "type": "blue",
            "data": "Assigned"
          },
          "@ORDER": {
            "type": "blue",
            "data": "45"
          },
          "@Comments": {
            "type": "blue",
            "data": ""
          }
        },
        "24": {
          "text": {
            "type": "blue",
            "data": "TAETORD"
          },
          "name": {
            "type": "blue",
            "data": "Planned Order of Element within Arm"
          },
          "@TYPE": {
            "type": "blue",
            "data": "Num"
          },
          "@LENGTH": {
            "type": "blue",
            "data": "8"
          },
          "@ROLE": {
            "type": "blue",
            "data": "Timing"
          },
          "@CORE": {
            "type": "blue",
            "data": "Perm"
          },
          "@CONTROLLED": {
            "type": "blue",
            "data": ""
          },
          "description": {
            "type": "blue",
            "data": ""
          },
          "@ORIGIN": {
            "type": "blue",
            "data": "Assigned"
          },
          "@ORDER": {
            "type": "blue",
            "data": "103"
          },
          "@Comments": {
            "type": "blue",
            "data": ""
          }
        },
        "25": {
          "text": {
            "type": "blue",
            "data": "EPOCH"
          },
          "name": {
            "type": "blue",
            "data": "Epoch"
          },
          "@TYPE": {
            "type": "blue",
            "data": "Char"
          },
          "@LENGTH": {
            "type": "blue",
            "data": "50"
          },
          "@ROLE": {
            "type": "blue",
            "data": "Timing"
          },
          "@CORE": {
            "type": "blue",
            "data": "Perm"
          },
          "@CONTROLLED": {
            "type": "blue",
            "data": ""
          },
          "description": {
            "type": "blue",
            "data": ""
          },
          "@ORIGIN": {
            "type": "blue",
            "data": "Assigned"
          },
          "@ORDER": {
            "type": "blue",
            "data": "104"
          },
          "@Comments": {
            "type": "blue",
            "data": ""
          }
        },
        "26": {
          "text": {
            "type": "blue",
            "data": "EXSTDTC"
          },
          "name": {
            "type": "blue",
            "data": "Start Date/Time of Treatment"
          },
          "@TYPE": {
            "type": "blue",
            "data": "Char"
          },
          "@LENGTH": {
            "type": "blue",
            "data": "20"
          },
          "@ROLE": {
            "type": "blue",
            "data": "Timing"
          },
          "@CORE": {
            "type": "blue",
            "data": "Exp"
          },
          "@CONTROLLED": {
            "type": "blue",
            "data": "ISO 8601"
          },
          "description": {
            "type": "blue",
            "data": ""
          },
          "@ORIGIN": {
            "type": "blue",
            "data": "Assigned"
          },
          "@ORDER": {
            "type": "blue",
            "data": "106"
          },
          "@Comments": {
            "type": "blue",
            "data": ""
          }
        },
        "27": {
          "text": {
            "type": "blue",
            "data": "EXENDTC"
          },
          "name": {
            "type": "blue",
            "data": "End Date/Time of Treatment"
          },
          "@TYPE": {
            "type": "blue",
            "data": "Char"
          },
          "@LENGTH": {
            "type": "blue",
            "data": "20"
          },
          "@ROLE": {
            "type": "blue",
            "data": "Timing"
          },
          "@CORE": {
            "type": "blue",
            "data": "Perm"
          },
          "@CONTROLLED": {
            "type": "blue",
            "data": "ISO 8601"
          },
          "description": {
            "type": "blue",
            "data": ""
          },
          "@ORIGIN": {
            "type": "blue",
            "data": "Assigned"
          },
          "@ORDER": {
            "type": "blue",
            "data": "107"
          },
          "@Comments": {
            "type": "blue",
            "data": ""
          }
        },
        "28": {
          "text": {
            "type": "blue",
            "data": "EXSTDY"
          },
          "name": {
            "type": "blue",
            "data": "Study Day of Start of Treatment"
          },
          "@TYPE": {
            "type": "blue",
            "data": "Num"
          },
          "@LENGTH": {
            "type": "blue",
            "data": "8"
          },
          "@ROLE": {
            "type": "blue",
            "data": "Timing"
          },
          "@CORE": {
            "type": "blue",
            "data": "Perm"
          },
          "@CONTROLLED": {
            "type": "blue",
            "data": ""
          },
          "description": {
            "type": "blue",
            "data": ""
          },
          "@ORIGIN": {
            "type": "blue",
            "data": "Derived"
          },
          "@ORDER": {
            "type": "blue",
            "data": "109"
          },
          "@Comments": {
            "type": "blue",
            "data": "Relative study day between <EXSTDTC> and DM.RFSTDTC. Add 1 if the difference is greater than or equal to 0."
          }
        },
        "29": {
          "text": {
            "type": "blue",
            "data": "EXENDY"
          },
          "name": {
            "type": "blue",
            "data": "Study Day of End of Treatment"
          },
          "@TYPE": {
            "type": "blue",
            "data": "Num"
          },
          "@LENGTH": {
            "type": "blue",
            "data": "8"
          },
          "@ROLE": {
            "type": "blue",
            "data": "Timing"
          },
          "@CORE": {
            "type": "blue",
            "data": "Perm"
          },
          "@CONTROLLED": {
            "type": "blue",
            "data": ""
          },
          "description": {
            "type": "blue",
            "data": ""
          },
          "@ORIGIN": {
            "type": "blue",
            "data": "Derived"
          },
          "@ORDER": {
            "type": "blue",
            "data": "110"
          },
          "@Comments": {
            "type": "blue",
            "data": "Relative study day between <EXENDTC> and DM.RFSTDTC. Add 1 if the difference is greater than or equal to 0."
          }
        },
        "30": {
          "text": {
            "type": "blue",
            "data": "EXDUR"
          },
          "name": {
            "type": "blue",
            "data": "Duration of Treatment"
          },
          "@TYPE": {
            "type": "blue",
            "data": "Char"
          },
          "@LENGTH": {
            "type": "blue",
            "data": "50"
          },
          "@ROLE": {
            "type": "blue",
            "data": "Timing"
          },
          "@CORE": {
            "type": "blue",
            "data": "Perm"
          },
          "@CONTROLLED": {
            "type": "blue",
            "data": "ISO 8601"
          },
          "description": {
            "type": "blue",
            "data": ""
          },
          "@ORIGIN": {
            "type": "blue",
            "data": "Assigned"
          },
          "@ORDER": {
            "type": "blue",
            "data": "111"
          },
          "@Comments": {
            "type": "blue",
            "data": ""
          }
        },
        "31": {
          "text": {
            "type": "blue",
            "data": "EXTPT"
          },
          "name": {
            "type": "blue",
            "data": "Planned Time Point Name"
          },
          "@TYPE": {
            "type": "blue",
            "data": "Char"
          },
          "@LENGTH": {
            "type": "blue",
            "data": "200"
          },
          "@ROLE": {
            "type": "blue",
            "data": "Timing"
          },
          "@CORE": {
            "type": "blue",
            "data": "Perm"
          },
          "@CONTROLLED": {
            "type": "blue",
            "data": ""
          },
          "description": {
            "type": "blue",
            "data": ""
          },
          "@ORIGIN": {
            "type": "blue",
            "data": "Assigned"
          },
          "@ORDER": {
            "type": "blue",
            "data": "112"
          },
          "@Comments": {
            "type": "blue",
            "data": ""
          }
        },
        "32": {
          "text": {
            "type": "blue",
            "data": "EXTPTNUM"
          },
          "name": {
            "type": "blue",
            "data": "Planned Time Point Number"
          },
          "@TYPE": {
            "type": "blue",
            "data": "Num"
          },
          "@LENGTH": {
            "type": "blue",
            "data": "8"
          },
          "@ROLE": {
            "type": "blue",
            "data": "Timing"
          },
          "@CORE": {
            "type": "blue",
            "data": "Perm"
          },
          "@CONTROLLED": {
            "type": "blue",
            "data": ""
          },
          "description": {
            "type": "blue",
            "data": ""
          },
          "@ORIGIN": {
            "type": "blue",
            "data": "Assigned"
          },
          "@ORDER": {
            "type": "blue",
            "data": "113"
          },
          "@Comments": {
            "type": "blue",
            "data": ""
          }
        },
        "33": {
          "text": {
            "type": "blue",
            "data": "EXELTM"
          },
          "name": {
            "type": "blue",
            "data": "Planned Elapsed Time from Time Point Ref"
          },
          "@TYPE": {
            "type": "blue",
            "data": "Char"
          },
          "@LENGTH": {
            "type": "blue",
            "data": "20"
          },
          "@ROLE": {
            "type": "blue",
            "data": "Timing"
          },
          "@CORE": {
            "type": "blue",
            "data": "Perm"
          },
          "@CONTROLLED": {
            "type": "blue",
            "data": "ISO 8601"
          },
          "description": {
            "type": "blue",
            "data": ""
          },
          "@ORIGIN": {
            "type": "blue",
            "data": "Protocol"
          },
          "@ORDER": {
            "type": "blue",
            "data": "114"
          },
          "@Comments": {
            "type": "blue",
            "data": ""
          }
        },
        "34": {
          "text": {
            "type": "blue",
            "data": "EXTPTREF"
          },
          "name": {
            "type": "blue",
            "data": "Time Point Reference"
          },
          "@TYPE": {
            "type": "blue",
            "data": "Char"
          },
          "@LENGTH": {
            "type": "blue",
            "data": "200"
          },
          "@ROLE": {
            "type": "blue",
            "data": "Timing"
          },
          "@CORE": {
            "type": "blue",
            "data": "Perm"
          },
          "@CONTROLLED": {
            "type": "blue",
            "data": ""
          },
          "description": {
            "type": "blue",
            "data": ""
          },
          "@ORIGIN": {
            "type": "blue",
            "data": "Assigned"
          },
          "@ORDER": {
            "type": "blue",
            "data": "115"
          },
          "@Comments": {
            "type": "blue",
            "data": ""
          }
        }
      }
    },
    "6": {
      "name": {
        "type": "blue",
        "data": "SU"
      },
      "text": {
        "type": "blue",
        "data": "Substance Use"
      },
      "structure": {
        "type": "blue",
        "data": "One record per substance type per reported occurrence per subject"
      },
      "class": {
        "type": "blue",
        "data": "Interventions"
      },
      "description": {
        "type": "blue",
        "data": ""
      },
      "children": {
        "0": {
          "text": {
            "type": "blue",
            "data": "STUDYID"
          },
          "name": {
            "type": "blue",
            "data": "Study Identifier"
          },
          "@TYPE": {
            "type": "blue",
            "data": "Char"
          },
          "@LENGTH": {
            "type": "blue",
            "data": "20"
          },
          "@ROLE": {
            "type": "blue",
            "data": "Identifier"
          },
          "@CORE": {
            "type": "blue",
            "data": "Req"
          },
          "@CONTROLLED": {
            "type": "blue",
            "data": ""
          },
          "description": {
            "type": "blue",
            "data": ""
          },
          "@ORIGIN": {
            "type": "blue",
            "data": "Assigned"
          },
          "@ORDER": {
            "type": "blue",
            "data": "1"
          },
          "@Comments": {
            "type": "blue",
            "data": ""
          }
        },
        "1": {
          "text": {
            "type": "blue",
            "data": "DOMAIN"
          },
          "name": {
            "type": "blue",
            "data": "Domain Abbreviation"
          },
          "@TYPE": {
            "type": "blue",
            "data": "Char"
          },
          "@LENGTH": {
            "type": "blue",
            "data": "2"
          },
          "@ROLE": {
            "type": "blue",
            "data": "Identifier"
          },
          "@CORE": {
            "type": "blue",
            "data": "Req"
          },
          "@CONTROLLED": {
            "type": "blue",
            "data": ""
          },
          "description": {
            "type": "blue",
            "data": ""
          },
          "@ORIGIN": {
            "type": "blue",
            "data": "Assigned"
          },
          "@ORDER": {
            "type": "blue",
            "data": "2"
          },
          "@Comments": {
            "type": "blue",
            "data": ""
          }
        },
        "2": {
          "text": {
            "type": "blue",
            "data": "USUBJID"
          },
          "name": {
            "type": "blue",
            "data": "Unique Subject Identifier"
          },
          "@TYPE": {
            "type": "blue",
            "data": "Char"
          },
          "@LENGTH": {
            "type": "blue",
            "data": "25"
          },
          "@ROLE": {
            "type": "blue",
            "data": "Identifier"
          },
          "@CORE": {
            "type": "blue",
            "data": "Req"
          },
          "@CONTROLLED": {
            "type": "blue",
            "data": ""
          },
          "description": {
            "type": "blue",
            "data": ""
          },
          "@ORIGIN": {
            "type": "blue",
            "data": "Derived"
          },
          "@ORDER": {
            "type": "blue",
            "data": "4"
          },
          "@Comments": {
            "type": "blue",
            "data": "Concatenate STUDYID, SITEID and SUBJID, separated by \"-\"."
          }
        },
        "3": {
          "text": {
            "type": "blue",
            "data": "SUSEQ"
          },
          "name": {
            "type": "blue",
            "data": "Sequence Number"
          },
          "@TYPE": {
            "type": "blue",
            "data": "Num"
          },
          "@LENGTH": {
            "type": "blue",
            "data": "8"
          },
          "@ROLE": {
            "type": "blue",
            "data": "Identifier"
          },
          "@CORE": {
            "type": "blue",
            "data": "Req"
          },
          "@CONTROLLED": {
            "type": "blue",
            "data": ""
          },
          "description": {
            "type": "blue",
            "data": ""
          },
          "@ORIGIN": {
            "type": "blue",
            "data": "Derived"
          },
          "@ORDER": {
            "type": "blue",
            "data": "8"
          },
          "@Comments": {
            "type": "blue",
            "data": "Sort by the key variables specified in the domain list. Assign SUSEQ=1 to the first record and increment SUSEQ by 1 for each additional record so that SUSEQ is unique for each record within a USUBJID."
          }
        },
        "4": {
          "text": {
            "type": "blue",
            "data": "SUGRPID"
          },
          "name": {
            "type": "blue",
            "data": "Group ID"
          },
          "@TYPE": {
            "type": "blue",
            "data": "Char"
          },
          "@LENGTH": {
            "type": "blue",
            "data": "20"
          },
          "@ROLE": {
            "type": "blue",
            "data": "Identifier"
          },
          "@CORE": {
            "type": "blue",
            "data": "Perm"
          },
          "@CONTROLLED": {
            "type": "blue",
            "data": ""
          },
          "description": {
            "type": "blue",
            "data": ""
          },
          "@ORIGIN": {
            "type": "blue",
            "data": "Assigned"
          },
          "@ORDER": {
            "type": "blue",
            "data": "9"
          },
          "@Comments": {
            "type": "blue",
            "data": ""
          }
        },
        "5": {
          "text": {
            "type": "blue",
            "data": "SUSPID"
          },
          "name": {
            "type": "blue",
            "data": "Sponsor-Defined Identifier"
          },
          "@TYPE": {
            "type": "blue",
            "data": "Char"
          },
          "@LENGTH": {
            "type": "blue",
            "data": "20"
          },
          "@ROLE": {
            "type": "blue",
            "data": "Identifier"
          },
          "@CORE": {
            "type": "blue",
            "data": "Perm"
          },
          "@CONTROLLED": {
            "type": "blue",
            "data": ""
          },
          "description": {
            "type": "blue",
            "data": ""
          },
          "@ORIGIN": {
            "type": "blue",
            "data": "Assigned"
          },
          "@ORDER": {
            "type": "blue",
            "data": "11"
          },
          "@Comments": {
            "type": "blue",
            "data": ""
          }
        },
        "6": {
          "text": {
            "type": "blue",
            "data": "SUTRT"
          },
          "name": {
            "type": "blue",
            "data": "Reported Name of Substance"
          },
          "@TYPE": {
            "type": "blue",
            "data": "Char"
          },
          "@LENGTH": {
            "type": "blue",
            "data": "200"
          },
          "@ROLE": {
            "type": "blue",
            "data": "Topic"
          },
          "@CORE": {
            "type": "blue",
            "data": "Req"
          },
          "@CONTROLLED": {
            "type": "blue",
            "data": ""
          },
          "description": {
            "type": "blue",
            "data": ""
          },
          "@ORIGIN": {
            "type": "blue",
            "data": "Assigned"
          },
          "@ORDER": {
            "type": "blue",
            "data": "20"
          },
          "@Comments": {
            "type": "blue",
            "data": ""
          }
        },
        "7": {
          "text": {
            "type": "blue",
            "data": "SUMODIFY"
          },
          "name": {
            "type": "blue",
            "data": "Modified Substance Name"
          },
          "@TYPE": {
            "type": "blue",
            "data": "Char"
          },
          "@LENGTH": {
            "type": "blue",
            "data": "200"
          },
          "@ROLE": {
            "type": "blue",
            "data": "Synonym Qualifier"
          },
          "@CORE": {
            "type": "blue",
            "data": "Perm"
          },
          "@CONTROLLED": {
            "type": "blue",
            "data": ""
          },
          "description": {
            "type": "blue",
            "data": ""
          },
          "@ORIGIN": {
            "type": "blue",
            "data": "Assigned"
          },
          "@ORDER": {
            "type": "blue",
            "data": "21"
          },
          "@Comments": {
            "type": "blue",
            "data": ""
          }
        },
        "8": {
          "text": {
            "type": "blue",
            "data": "SUDECOD"
          },
          "name": {
            "type": "blue",
            "data": "Standardized Substance Name"
          },
          "@TYPE": {
            "type": "blue",
            "data": "Char"
          },
          "@LENGTH": {
            "type": "blue",
            "data": "200"
          },
          "@ROLE": {
            "type": "blue",
            "data": "Synonym Qualifier"
          },
          "@CORE": {
            "type": "blue",
            "data": "Perm"
          },
          "@CONTROLLED": {
            "type": "blue",
            "data": ""
          },
          "description": {
            "type": "blue",
            "data": ""
          },
          "@ORIGIN": {
            "type": "blue",
            "data": "Assigned"
          },
          "@ORDER": {
            "type": "blue",
            "data": "22"
          },
          "@Comments": {
            "type": "blue",
            "data": ""
          }
        },
        "9": {
          "text": {
            "type": "blue",
            "data": "SUCAT"
          },
          "name": {
            "type": "blue",
            "data": "Category for Substance Use"
          },
          "@TYPE": {
            "type": "blue",
            "data": "Char"
          },
          "@LENGTH": {
            "type": "blue",
            "data": "200"
          },
          "@ROLE": {
            "type": "blue",
            "data": "Grouping Qualifier"
          },
          "@CORE": {
            "type": "blue",
            "data": "Perm"
          },
          "@CONTROLLED": {
            "type": "blue",
            "data": ""
          },
          "description": {
            "type": "blue",
            "data": ""
          },
          "@ORIGIN": {
            "type": "blue",
            "data": "Assigned"
          },
          "@ORDER": {
            "type": "blue",
            "data": "23"
          },
          "@Comments": {
            "type": "blue",
            "data": ""
          }
        },
        "10": {
          "text": {
            "type": "blue",
            "data": "SUSCAT"
          },
          "name": {
            "type": "blue",
            "data": "Subcategory for Substance Use"
          },
          "@TYPE": {
            "type": "blue",
            "data": "Char"
          },
          "@LENGTH": {
            "type": "blue",
            "data": "200"
          },
          "@ROLE": {
            "type": "blue",
            "data": "Grouping Qualifier"
          },
          "@CORE": {
            "type": "blue",
            "data": "Perm"
          },
          "@CONTROLLED": {
            "type": "blue",
            "data": ""
          },
          "description": {
            "type": "blue",
            "data": ""
          },
          "@ORIGIN": {
            "type": "blue",
            "data": "Assigned"
          },
          "@ORDER": {
            "type": "blue",
            "data": "24"
          },
          "@Comments": {
            "type": "blue",
            "data": ""
          }
        },
        "11": {
          "text": {
            "type": "blue",
            "data": "SUPRESP"
          },
          "name": {
            "type": "blue",
            "data": "SU Pre-Specified"
          },
          "@TYPE": {
            "type": "blue",
            "data": "Char"
          },
          "@LENGTH": {
            "type": "blue",
            "data": "1"
          },
          "@ROLE": {
            "type": "blue",
            "data": "Record Qualifier"
          },
          "@CORE": {
            "type": "blue",
            "data": "Perm"
          },
          "@CONTROLLED": {
            "type": "blue",
            "data": "(NY)"
          },
          "description": {
            "type": "blue",
            "data": ""
          },
          "@ORIGIN": {
            "type": "blue",
            "data": "Assigned"
          },
          "@ORDER": {
            "type": "blue",
            "data": "25"
          },
          "@Comments": {
            "type": "blue",
            "data": ""
          }
        },
        "12": {
          "text": {
            "type": "blue",
            "data": "SUOCCUR"
          },
          "name": {
            "type": "blue",
            "data": "SU Occurrence"
          },
          "@TYPE": {
            "type": "blue",
            "data": "Char"
          },
          "@LENGTH": {
            "type": "blue",
            "data": "1"
          },
          "@ROLE": {
            "type": "blue",
            "data": "Record Qualifier"
          },
          "@CORE": {
            "type": "blue",
            "data": "Perm"
          },
          "@CONTROLLED": {
            "type": "blue",
            "data": "(NY)"
          },
          "description": {
            "type": "blue",
            "data": ""
          },
          "@ORIGIN": {
            "type": "blue",
            "data": "Assigned"
          },
          "@ORDER": {
            "type": "blue",
            "data": "26"
          },
          "@Comments": {
            "type": "blue",
            "data": ""
          }
        },
        "13": {
          "text": {
            "type": "blue",
            "data": "SUSTAT"
          },
          "name": {
            "type": "blue",
            "data": "Completion Status"
          },
          "@TYPE": {
            "type": "blue",
            "data": "Char"
          },
          "@LENGTH": {
            "type": "blue",
            "data": "8"
          },
          "@ROLE": {
            "type": "blue",
            "data": "Record Qualifier"
          },
          "@CORE": {
            "type": "blue",
            "data": "Perm"
          },
          "@CONTROLLED": {
            "type": "blue",
            "data": "(ND)"
          },
          "description": {
            "type": "blue",
            "data": ""
          },
          "@ORIGIN": {
            "type": "blue",
            "data": "Assigned"
          },
          "@ORDER": {
            "type": "blue",
            "data": "27"
          },
          "@Comments": {
            "type": "blue",
            "data": ""
          }
        },
        "14": {
          "text": {
            "type": "blue",
            "data": "SUREASND"
          },
          "name": {
            "type": "blue",
            "data": "Reason Substance Use Not Collected"
          },
          "@TYPE": {
            "type": "blue",
            "data": "Char"
          },
          "@LENGTH": {
            "type": "blue",
            "data": "200"
          },
          "@ROLE": {
            "type": "blue",
            "data": "Record Qualifier"
          },
          "@CORE": {
            "type": "blue",
            "data": "Perm"
          },
          "@CONTROLLED": {
            "type": "blue",
            "data": ""
          },
          "description": {
            "type": "blue",
            "data": ""
          },
          "@ORIGIN": {
            "type": "blue",
            "data": "Assigned"
          },
          "@ORDER": {
            "type": "blue",
            "data": "28"
          },
          "@Comments": {
            "type": "blue",
            "data": ""
          }
        },
        "15": {
          "text": {
            "type": "blue",
            "data": "SUCLAS"
          },
          "name": {
            "type": "blue",
            "data": "Substance Use Class"
          },
          "@TYPE": {
            "type": "blue",
            "data": "Char"
          },
          "@LENGTH": {
            "type": "blue",
            "data": "200"
          },
          "@ROLE": {
            "type": "blue",
            "data": "Variable Qualifier"
          },
          "@CORE": {
            "type": "blue",
            "data": "Perm"
          },
          "@CONTROLLED": {
            "type": "blue",
            "data": ""
          },
          "description": {
            "type": "blue",
            "data": ""
          },
          "@ORIGIN": {
            "type": "blue",
            "data": "Assigned"
          },
          "@ORDER": {
            "type": "blue",
            "data": "30"
          },
          "@Comments": {
            "type": "blue",
            "data": ""
          }
        },
        "16": {
          "text": {
            "type": "blue",
            "data": "SUCLASCD"
          },
          "name": {
            "type": "blue",
            "data": "Substance Use Class Code"
          },
          "@TYPE": {
            "type": "blue",
            "data": "Char"
          },
          "@LENGTH": {
            "type": "blue",
            "data": "8"
          },
          "@ROLE": {
            "type": "blue",
            "data": "Variable Qualifier"
          },
          "@CORE": {
            "type": "blue",
            "data": "Perm"
          },
          "@CONTROLLED": {
            "type": "blue",
            "data": ""
          },
          "description": {
            "type": "blue",
            "data": ""
          },
          "@ORIGIN": {
            "type": "blue",
            "data": "Assigned"
          },
          "@ORDER": {
            "type": "blue",
            "data": "31"
          },
          "@Comments": {
            "type": "blue",
            "data": ""
          }
        },
        "17": {
          "text": {
            "type": "blue",
            "data": "SUDOSE"
          },
          "name": {
            "type": "blue",
            "data": "Substance Use Consumption"
          },
          "@TYPE": {
            "type": "blue",
            "data": "Num"
          },
          "@LENGTH": {
            "type": "blue",
            "data": "8"
          },
          "@ROLE": {
            "type": "blue",
            "data": "Record Qualifier"
          },
          "@CORE": {
            "type": "blue",
            "data": "Perm"
          },
          "@CONTROLLED": {
            "type": "blue",
            "data": ""
          },
          "description": {
            "type": "blue",
            "data": ""
          },
          "@ORIGIN": {
            "type": "blue",
            "data": "Assigned"
          },
          "@ORDER": {
            "type": "blue",
            "data": "32"
          },
          "@Comments": {
            "type": "blue",
            "data": ""
          }
        },
        "18": {
          "text": {
            "type": "blue",
            "data": "SUDOSTXT"
          },
          "name": {
            "type": "blue",
            "data": "Substance Use Consumption Text"
          },
          "@TYPE": {
            "type": "blue",
            "data": "Char"
          },
          "@LENGTH": {
            "type": "blue",
            "data": "200"
          },
          "@ROLE": {
            "type": "blue",
            "data": "Record Qualifier"
          },
          "@CORE": {
            "type": "blue",
            "data": "Perm"
          },
          "@CONTROLLED": {
            "type": "blue",
            "data": ""
          },
          "description": {
            "type": "blue",
            "data": ""
          },
          "@ORIGIN": {
            "type": "blue",
            "data": "Assigned"
          },
          "@ORDER": {
            "type": "blue",
            "data": "33"
          },
          "@Comments": {
            "type": "blue",
            "data": ""
          }
        },
        "19": {
          "text": {
            "type": "blue",
            "data": "SUDOSU"
          },
          "name": {
            "type": "blue",
            "data": "Consumption Units"
          },
          "@TYPE": {
            "type": "blue",
            "data": "Char"
          },
          "@LENGTH": {
            "type": "blue",
            "data": "20"
          },
          "@ROLE": {
            "type": "blue",
            "data": "Variable Qualifier"
          },
          "@CORE": {
            "type": "blue",
            "data": "Perm"
          },
          "@CONTROLLED": {
            "type": "blue",
            "data": "(UNIT)"
          },
          "description": {
            "type": "blue",
            "data": ""
          },
          "@ORIGIN": {
            "type": "blue",
            "data": "Assigned"
          },
          "@ORDER": {
            "type": "blue",
            "data": "34"
          },
          "@Comments": {
            "type": "blue",
            "data": ""
          }
        },
        "20": {
          "text": {
            "type": "blue",
            "data": "SUDOSFRM"
          },
          "name": {
            "type": "blue",
            "data": "Dose Form"
          },
          "@TYPE": {
            "type": "blue",
            "data": "Char"
          },
          "@LENGTH": {
            "type": "blue",
            "data": "200"
          },
          "@ROLE": {
            "type": "blue",
            "data": "Record Qualifier"
          },
          "@CORE": {
            "type": "blue",
            "data": "Perm"
          },
          "@CONTROLLED": {
            "type": "blue",
            "data": ""
          },
          "description": {
            "type": "blue",
            "data": ""
          },
          "@ORIGIN": {
            "type": "blue",
            "data": "Assigned"
          },
          "@ORDER": {
            "type": "blue",
            "data": "35"
          },
          "@Comments": {
            "type": "blue",
            "data": ""
          }
        },
        "21": {
          "text": {
            "type": "blue",
            "data": "SUDOSFRQ"
          },
          "name": {
            "type": "blue",
            "data": "Use Frequency Per Interval"
          },
          "@TYPE": {
            "type": "blue",
            "data": "Char"
          },
          "@LENGTH": {
            "type": "blue",
            "data": "50"
          },
          "@ROLE": {
            "type": "blue",
            "data": "Variable Qualifier"
          },
          "@CORE": {
            "type": "blue",
            "data": "Perm"
          },
          "@CONTROLLED": {
            "type": "blue",
            "data": "(FREQ)"
          },
          "description": {
            "type": "blue",
            "data": ""
          },
          "@ORIGIN": {
            "type": "blue",
            "data": "Assigned"
          },
          "@ORDER": {
            "type": "blue",
            "data": "36"
          },
          "@Comments": {
            "type": "blue",
            "data": ""
          }
        },
        "22": {
          "text": {
            "type": "blue",
            "data": "SUDOSTOT"
          },
          "name": {
            "type": "blue",
            "data": "Total Daily Consumption"
          },
          "@TYPE": {
            "type": "blue",
            "data": "Num"
          },
          "@LENGTH": {
            "type": "blue",
            "data": "8"
          },
          "@ROLE": {
            "type": "blue",
            "data": "Record Qualifier"
          },
          "@CORE": {
            "type": "blue",
            "data": "Perm"
          },
          "@CONTROLLED": {
            "type": "blue",
            "data": ""
          },
          "description": {
            "type": "blue",
            "data": ""
          },
          "@ORIGIN": {
            "type": "blue",
            "data": "Assigned"
          },
          "@ORDER": {
            "type": "blue",
            "data": "37"
          },
          "@Comments": {
            "type": "blue",
            "data": ""
          }
        },
        "23": {
          "text": {
            "type": "blue",
            "data": "SUROUTE"
          },
          "name": {
            "type": "blue",
            "data": "Route of Administration"
          },
          "@TYPE": {
            "type": "blue",
            "data": "Char"
          },
          "@LENGTH": {
            "type": "blue",
            "data": "50"
          },
          "@ROLE": {
            "type": "blue",
            "data": "Variable Qualifier"
          },
          "@CORE": {
            "type": "blue",
            "data": "Perm"
          },
          "@CONTROLLED": {
            "type": "blue",
            "data": "(ROUTE)"
          },
          "description": {
            "type": "blue",
            "data": ""
          },
          "@ORIGIN": {
            "type": "blue",
            "data": "Assigned"
          },
          "@ORDER": {
            "type": "blue",
            "data": "39"
          },
          "@Comments": {
            "type": "blue",
            "data": ""
          }
        },
        "24": {
          "text": {
            "type": "blue",
            "data": "SUSTDTC"
          },
          "name": {
            "type": "blue",
            "data": "Start Date/Time of Substance Use"
          },
          "@TYPE": {
            "type": "blue",
            "data": "Char"
          },
          "@LENGTH": {
            "type": "blue",
            "data": "20"
          },
          "@ROLE": {
            "type": "blue",
            "data": "Timing"
          },
          "@CORE": {
            "type": "blue",
            "data": "Perm"
          },
          "@CONTROLLED": {
            "type": "blue",
            "data": "ISO 8601"
          },
          "description": {
            "type": "blue",
            "data": ""
          },
          "@ORIGIN": {
            "type": "blue",
            "data": "Assigned"
          },
          "@ORDER": {
            "type": "blue",
            "data": "106"
          },
          "@Comments": {
            "type": "blue",
            "data": ""
          }
        },
        "25": {
          "text": {
            "type": "blue",
            "data": "SUENDTC"
          },
          "name": {
            "type": "blue",
            "data": "End Date/Time of Substance Use"
          },
          "@TYPE": {
            "type": "blue",
            "data": "Char"
          },
          "@LENGTH": {
            "type": "blue",
            "data": "20"
          },
          "@ROLE": {
            "type": "blue",
            "data": "Timing"
          },
          "@CORE": {
            "type": "blue",
            "data": "Perm"
          },
          "@CONTROLLED": {
            "type": "blue",
            "data": "ISO 8601"
          },
          "description": {
            "type": "blue",
            "data": ""
          },
          "@ORIGIN": {
            "type": "blue",
            "data": "Assigned"
          },
          "@ORDER": {
            "type": "blue",
            "data": "107"
          },
          "@Comments": {
            "type": "blue",
            "data": ""
          }
        },
        "26": {
          "text": {
            "type": "blue",
            "data": "SUSTDY"
          },
          "name": {
            "type": "blue",
            "data": "Study Day of Start of Substance Use"
          },
          "@TYPE": {
            "type": "blue",
            "data": "Num"
          },
          "@LENGTH": {
            "type": "blue",
            "data": "8"
          },
          "@ROLE": {
            "type": "blue",
            "data": "Timing"
          },
          "@CORE": {
            "type": "blue",
            "data": "Perm"
          },
          "@CONTROLLED": {
            "type": "blue",
            "data": ""
          },
          "description": {
            "type": "blue",
            "data": ""
          },
          "@ORIGIN": {
            "type": "blue",
            "data": "Derived"
          },
          "@ORDER": {
            "type": "blue",
            "data": "109"
          },
          "@Comments": {
            "type": "blue",
            "data": "Relative study day between <SUSTDTC> and DM.RFSTDTC. Add 1 if the difference is greater than or equal to 0."
          }
        },
        "27": {
          "text": {
            "type": "blue",
            "data": "SUENDY"
          },
          "name": {
            "type": "blue",
            "data": "Study Day of End of Substance Use"
          },
          "@TYPE": {
            "type": "blue",
            "data": "Num"
          },
          "@LENGTH": {
            "type": "blue",
            "data": "8"
          },
          "@ROLE": {
            "type": "blue",
            "data": "Timing"
          },
          "@CORE": {
            "type": "blue",
            "data": "Perm"
          },
          "@CONTROLLED": {
            "type": "blue",
            "data": ""
          },
