{
  "text": "Astellas",
  "level": "lightblue",
  "icon": "icons/tree.png",
  "children": [
    {
      "text": "Domains",
      "level": "#ffd900",
      "children": [
        {
          "name": "DM",
          "text": "Demographics",
          "structure": "One record per subject",
          "class": "Special Purpose Domains",
          "level": "red",
          "description": "",
          "children": [
            {
              "text": "STUDYID",
              "name": "Study Identifier",
              "@TYPE": "Char",
              "@LENGTH": "20",
              "@ROLE": "Identifier",
              "@CORE": "Req",
              "@CONTROLLED": "",
              "description": "",
              "@ORIGIN": "Assigned",
              "@ORDER": "1",
              "@Comments": "",
              "level": "red"
            },
            {
              "level": "red",
              "text": "DOMAIN",
              "name": "Domain Abbreviation",
              "@TYPE": "Char",
              "@LENGTH": "2",
              "@ROLE": "Identifier",
              "@CORE": "Req",
              "@CONTROLLED": "",
              "description": "",
              "@ORIGIN": "Assigned",
              "@ORDER": "2",
              "@Comments": ""
            },
            {
              "level": "red",
              "text": "USUBJID",
              "name": "Unique Subject Identifier",
              "@TYPE": "Char",
              "@LENGTH": "25",
              "@ROLE": "Identifier",
              "@CORE": "Req",
              "@CONTROLLED": "",
              "description": "",
              "@ORIGIN": "Derived",
              "@ORDER": "4",
              "@Comments": "Concatenate STUDYID, SITEID and SUBJID, separated by \"-\"."
            },
            {
              "level": "red",
              "text": "SUBJID",
              "name": "Subject Identifier for the Study",
              "@TYPE": "Char",
              "@LENGTH": "20",
              "@ROLE": "Topic",
              "@CORE": "Req",
              "@CONTROLLED": "",
              "description": "",
              "@ORIGIN": "Assigned",
              "@ORDER": "20",
              "@Comments": ""
            },
            {"level": "green",
              "text": "RFSTDTC",
              "name": "Subject Reference Start Date/Time",
              "@TYPE": "Char",
              "@LENGTH": "20",
              "@ROLE": "Record Qualifier",
              "@CORE": "Exp",
              "@CONTROLLED": "ISO 8601",
              "description": "",
              "@ORIGIN": "Derived",
              "@ORDER": "21",
              "@Comments": "For safety subjects equal to first date/time of study drug. Null for subjects who did not take study drug."
            },
            {
              "level": "green",
              "text": "RFENDTC",
              "name": "Subject Reference End Date/Time",
              "@TYPE": "Char",
              "@LENGTH": "20",
              "@ROLE": "Record Qualifier",
              "@CORE": "Exp",
              "@CONTROLLED": "ISO 8601",
              "description": "",
              "@ORIGIN": "Derived",
              "@ORDER": "22",
              "@Comments": "For safety subjects equal to last date/time of study drug. Null for subjects who did not take study drug."
            },
            {
              "text": "RFXSTDTC",
              "name": "Date/Time of First Study Treatment",
              "@TYPE": "Char",
              "@LENGTH": "20",
              "@ROLE": "Record Qualifier",
              "@CORE": "Exp",
              "@CONTROLLED": "ISO 8601",
              "description": "",
              "@ORIGIN": "Derived",
              "@ORDER": "23",
              "@Comments": "Equal to first date/time of study drug. Null for subjects who did not take study drug."
            },
            {
              "text": "RFXENDTC",
              "name": "Date/Time of Last Study Treatment",
              "@TYPE": "Char",
              "@LENGTH": "20",
              "@ROLE": "Record Qualifier",
              "@CORE": "Exp",
              "@CONTROLLED": "ISO 8601",
              "description": "",
              "@ORIGIN": "Derived",
              "@ORDER": "24",
              "@Comments": "Equal to last date/time of study drug. Null for subjects who did not take study drug."
            },
            {
              "text": "RFICDTC",
              "name": "Date/Time of Informed Consent",
              "@TYPE": "Char",
              "@LENGTH": "20",
              "@ROLE": "Record Qualifier",
              "@CORE": "Exp",
              "@CONTROLLED": "ISO 8601",
              "description": "",
              "@ORIGIN": "Assigned",
              "@ORDER": "25",
              "@Comments": ""
            },
            {
              "text": "RFPENDTC",
              "name": "Date/Time of End of Participation",
              "@TYPE": "Char",
              "@LENGTH": "20",
              "@ROLE": "Record Qualifier",
              "@CORE": "Exp",
              "@CONTROLLED": "ISO 8601",
              "description": "",
              "@ORIGIN": "Derived",
              "@ORDER": "26",
              "@Comments": "Last known date of contact"
            },
            {
              "text": "DTHDTC",
              "name": "Date/Time of Death",
              "@TYPE": "Char",
              "@LENGTH": "20",
              "@ROLE": "Record Qualifier",
              "@CORE": "Exp",
              "@CONTROLLED": "ISO 8601",
              "description": "",
              "@ORIGIN": "Assigned",
              "@ORDER": "27",
              "@Comments": ""
            },
            {
              "text": "DTHFL",
              "name": "Subject Death Flag",
              "@TYPE": "Char",
              "@LENGTH": "1",
              "@ROLE": "Record Qualifier",
              "@CORE": "Exp",
              "@CONTROLLED": "(NY)",
              "description": "",
              "@ORIGIN": "Assigned",
              "@ORDER": "28",
              "@Comments": ""
            },
            {
              "text": "SITEID",
              "name": "Study Site Identifier",
              "@TYPE": "Char",
              "@LENGTH": "10",
              "@ROLE": "Record Qualifier",
              "@CORE": "Req",
              "@CONTROLLED": "",
              "description": "",
              "@ORIGIN": "Assigned",
              "@ORDER": "29",
              "@Comments": ""
            },
            {
              "text": "INVID",
              "name": "Investigator Identifier",
              "@TYPE": "Char",
              "@LENGTH": "50",
              "@ROLE": "Record Qualifier",
              "@CORE": "Perm",
              "@CONTROLLED": "",
              "description": "",
              "@ORIGIN": "Assigned",
              "@ORDER": "30",
              "@Comments": ""
            },
            {
              "text": "INVNAM",
              "name": "Investigator Name",
              "@TYPE": "Char",
              "@LENGTH": "200",
              "@ROLE": "Synonym Qualifier",
              "@CORE": "Perm",
              "@CONTROLLED": "",
              "description": "",
              "@ORIGIN": "Assigned",
              "@ORDER": "31",
              "@Comments": ""
            },
            {
              "text": "BRTHDTC",
              "name": "Date/Time of Birth",
              "@TYPE": "Char",
              "@LENGTH": "20",
              "@ROLE": "Record Qualifier",
              "@CORE": "Perm",
              "@CONTROLLED": "ISO 8601",
              "description": "",
              "@ORIGIN": "Assigned",
              "@ORDER": "32",
              "@Comments": ""
            },
            {
              "text": "AGE",
              "name": "Age",
              "@TYPE": "Num",
              "@LENGTH": "8",
              "@ROLE": "Record Qualifier",
              "@CORE": "Exp",
              "@CONTROLLED": "",
              "description": "",
              "@ORIGIN": "Derived",
              "@ORDER": "33",
              "@Comments": "Derived from DM.BRTHDTC and DM.RFICDTC."
            },
            {
              "text": "AGEU",
              "name": "Age Units",
              "@TYPE": "Char",
              "@LENGTH": "10",
              "@ROLE": "Variable Qualifier",
              "@CORE": "Exp",
              "@CONTROLLED": "(AGEU)",
              "description": "",
              "@ORIGIN": "Assigned",
              "@ORDER": "34",
              "@Comments": ""
            },
            {
              "text": "SEX",
              "name": "Sex",
              "@TYPE": "Char",
              "@LENGTH": "2",
              "@ROLE": "Record Qualifier",
              "@CORE": "Req",
              "@CONTROLLED": "(SEX)",
              "description": "",
              "@ORIGIN": "Assigned",
              "@ORDER": "35",
              "@Comments": ""
            },
            {
              "text": "RACE",
              "name": "Race",
              "@TYPE": "Char",
              "@LENGTH": "41",
              "@ROLE": "Record Qualifier",
              "@CORE": "Exp",
              "@CONTROLLED": "(RACE)",
              "description": "",
              "@ORIGIN": "Assigned",
              "@ORDER": "36",
              "@Comments": ""
            },
            {
              "text": "ETHNIC",
              "name": "Ethnicity",
              "@TYPE": "Char",
              "@LENGTH": "50",
              "@ROLE": "Record Qualifier",
              "@CORE": "Perm",
              "@CONTROLLED": "(ETHNIC)",
              "description": "",
              "@ORIGIN": "Assigned",
              "@ORDER": "37",
              "@Comments": ""
            },
            {
              "text": "ARMCD",
              "name": "Planned Arm Code",
              "@TYPE": "Char",
              "@LENGTH": "20",
              "@ROLE": "Record Qualifier",
              "@CORE": "Req",
              "@CONTROLLED": "",
              "description": "",
              "@ORIGIN": "Derived",
              "@ORDER": "38",
              "@Comments": "Derived from arm code in TRIAL ARM (TA) based on Randomization Number."
            },
            {
              "text": "ARM",
              "name": "Description of Planned Arm",
              "@TYPE": "Char",
              "@LENGTH": "200",
              "@ROLE": "Synonym Qualifier",
              "@CORE": "Req",
              "@CONTROLLED": "",
              "description": "",
              "@ORIGIN": "Derived",
              "@ORDER": "39",
              "@Comments": "Derived from description of arm in TRIAL ARM (TA) based on Randomization Number."
            },
            {
              "text": "ACTARMCD",
              "name": "Actual Arm Code",
              "@TYPE": "Char",
              "@LENGTH": "20",
              "@ROLE": "Record Qualifier",
              "@CORE": "Req",
              "@CONTROLLED": "",
              "description": "",
              "@ORIGIN": "Derived",
              "@ORDER": "40",
              "@Comments": "Derived from arm code in Trial Arm (TA) based on Actual Assignment."
            },
            {
              "text": "ACTARM",
              "name": "Description of Actual Arm",
              "@TYPE": "Char",
              "@LENGTH": "200",
              "@ROLE": "Synonym Qualifier",
              "@CORE": "Req",
              "@CONTROLLED": "",
              "description": "",
              "@ORIGIN": "Derived",
              "@ORDER": "41",
              "@Comments": "Derived from description of arm in TRIAL ARM (TA) based on Actual Assignment."
            },
            {
              "text": "COUNTRY",
              "name": "Country",
              "@TYPE": "Char",
              "@LENGTH": "3",
              "@ROLE": "Record Qualifier",
              "@CORE": "Req",
              "@CONTROLLED": "(COUNTRY) ISO 3166",
              "description": "",
              "@ORIGIN": "Assigned",
              "@ORDER": "42",
              "@Comments": ""
            },
            {
              "text": "DMDTC",
              "name": "Date/Time of Collection",
              "@TYPE": "Char",
              "@LENGTH": "20",
              "@ROLE": "Timing",
              "@CORE": "Perm",
              "@CONTROLLED": "ISO 8601",
              "description": "",
              "@ORIGIN": "Assigned",
              "@ORDER": "105",
              "@Comments": ""
            },
            {
              "text": "DMDY",
              "name": "Study Day of Collection",
              "@TYPE": "Num",
              "@LENGTH": "8",
              "@ROLE": "Timing",
              "@CORE": "Perm",
              "@CONTROLLED": "",
              "description": "",
              "@ORIGIN": "Derived",
              "@ORDER": "108",
              "@Comments": "Relative study day between <DMDTC> and DM.RFSTDTC. Add 1 if the difference is greater than or equal to 0."
            }
          ]
        },
        {
          "name": "CO",
          "text": "Comments",
          "structure": "One record per comment per subject",
          "class": "Special Purpose Domains",
          "description": "",
          "children": [
            {
              "text": "STUDYID",
              "name": "Study Identifier",
              "@TYPE": "Char",
              "@LENGTH": "20",
              "@ROLE": "Identifier",
              "@CORE": "Req",
              "@CONTROLLED": "",
              "description": "",
              "@ORIGIN": "Assigned",
              "@ORDER": "1",
              "@Comments": ""
            },
            {
              "text": "DOMAIN",
              "name": "Domain Abbreviation",
              "@TYPE": "Char",
              "@LENGTH": "2",
              "@ROLE": "Identifier",
              "@CORE": "Req",
              "@CONTROLLED": "",
              "description": "",
              "@ORIGIN": "Assigned",
              "@ORDER": "2",
              "@Comments": ""
            },
            {
              "text": "RDOMAIN",
              "name": "Related Domain Abbreviation",
              "@TYPE": "Char",
              "@LENGTH": "2",
              "@ROLE": "Record Qualifier",
              "@CORE": "Perm",
              "@CONTROLLED": "",
              "description": "",
              "@ORIGIN": "Assigned",
              "@ORDER": "3",
              "@Comments": ""
            },
            {
              "text": "USUBJID",
              "name": "Unique Subject Identifier",
              "@TYPE": "Char",
              "@LENGTH": "25",
              "@ROLE": "Identifier",
              "@CORE": "Req",
              "@CONTROLLED": "",
              "description": "",
              "@ORIGIN": "Derived",
              "@ORDER": "4",
              "@Comments": "Concatenate STUDYID, SITEID and SUBJID, separated by \"-\"."
            },
            {
              "text": "COSEQ",
              "name": "Sequence Number",
              "@TYPE": "Num",
              "@LENGTH": "8",
              "@ROLE": "Identifier",
              "@CORE": "Req",
              "@CONTROLLED": "",
              "description": "",
              "@ORIGIN": "Derived",
              "@ORDER": "8",
              "@Comments": "Sort by the key variables specified in the domain list. Assign COSEQ=1 to the first record and increment COSEQ by 1 for each additional record so that COSEQ is unique for each record within a USUBJID."
            },
            {
              "text": "IDVAR",
              "name": "Identifying Variable",
              "@TYPE": "Char",
              "@LENGTH": "8",
              "@ROLE": "Record Qualifier",
              "@CORE": "Perm",
              "@CONTROLLED": "",
              "description": "",
              "@ORIGIN": "Assigned",
              "@ORDER": "24",
              "@Comments": ""
            },
            {
              "text": "IDVARVAL",
              "name": "Identifying Variable Value",
              "@TYPE": "Char",
              "@LENGTH": "50",
              "@ROLE": "Record Qualifier",
              "@CORE": "Perm",
              "@CONTROLLED": "",
              "description": "",
              "@ORIGIN": "Assigned",
              "@ORDER": "25",
              "@Comments": ""
            },
            {
              "text": "COREF",
              "name": "Comment Reference",
              "@TYPE": "Char",
              "@LENGTH": "200",
              "@ROLE": "Record Qualifier",
              "@CORE": "Perm",
              "@CONTROLLED": "",
              "description": "",
              "@ORIGIN": "Assigned",
              "@ORDER": "20",
              "@Comments": ""
            },
            {
              "text": "COVAL",
              "name": "Comment",
              "@TYPE": "Char",
              "@LENGTH": "200",
              "@ROLE": "Topic",
              "@CORE": "Req",
              "@CONTROLLED": "",
              "description": "",
              "@ORIGIN": "Assigned",
              "@ORDER": "21",
              "@Comments": ""
            },
            {
              "text": "COVAL1",
              "name": "Comment",
              "@TYPE": "Char",
              "@LENGTH": "200",
              "@ROLE": "Topic",
              "@CORE": "Perm",
              "@CONTROLLED": "",
              "description": "",
              "@ORIGIN": "Assigned",
              "@ORDER": "22",
              "@Comments": ""
            },
            {
              "text": "COVAL2",
              "name": "Comment",
              "@TYPE": "Char",
              "@LENGTH": "200",
              "@ROLE": "Topic",
              "@CORE": "Perm",
              "@CONTROLLED": "",
              "description": "",
              "@ORIGIN": "Assigned",
              "@ORDER": "23",
              "@Comments": ""
            },
            {
              "text": "COVAL3",
              "name": "Comment",
              "@TYPE": "Char",
              "@LENGTH": "200",
              "@ROLE": "Topic",
              "@CORE": "Perm",
              "@CONTROLLED": "",
              "description": "",
              "@ORIGIN": "Assigned",
              "@ORDER": "24",
              "@Comments": ""
            },
            {
              "text": "COVAL4",
              "name": "Comment",
              "@TYPE": "Char",
              "@LENGTH": "200",
              "@ROLE": "Topic",
              "@CORE": "Perm",
              "@CONTROLLED": "",
              "description": "",
              "@ORIGIN": "Assigned",
              "@ORDER": "25",
              "@Comments": ""
            },
            {
              "text": "COVAL5",
              "name": "Comment",
              "@TYPE": "Char",
              "@LENGTH": "200",
              "@ROLE": "Topic",
              "@CORE": "Perm",
              "@CONTROLLED": "",
              "description": "",
              "@ORIGIN": "Assigned",
              "@ORDER": "26",
              "@Comments": ""
            },
            {
              "text": "COVAL6",
              "name": "Comment",
              "@TYPE": "Char",
              "@LENGTH": "200",
              "@ROLE": "Topic",
              "@CORE": "Perm",
              "@CONTROLLED": "",
              "description": "",
              "@ORIGIN": "Assigned",
              "@ORDER": "27",
              "@Comments": ""
            },
            {
              "text": "COVAL7",
              "name": "Comment",
              "@TYPE": "Char",
              "@LENGTH": "200",
              "@ROLE": "Topic",
              "@CORE": "Perm",
              "@CONTROLLED": "",
              "description": "",
              "@ORIGIN": "Assigned",
              "@ORDER": "28",
              "@Comments": ""
            },
            {
              "text": "COVAL8",
              "name": "Comment",
              "@TYPE": "Char",
              "@LENGTH": "200",
              "@ROLE": "Topic",
              "@CORE": "Perm",
              "@CONTROLLED": "",
              "description": "",
              "@ORIGIN": "Assigned",
              "@ORDER": "29",
              "@Comments": ""
            },
            {
              "text": "COVAL9",
              "name": "Comment",
              "@TYPE": "Char",
              "@LENGTH": "200",
              "@ROLE": "Topic",
              "@CORE": "Perm",
              "@CONTROLLED": "",
              "description": "",
              "@ORIGIN": "Assigned",
              "@ORDER": "30",
              "@Comments": ""
            },
            {
              "text": "COVAL10",
              "name": "Comment",
              "@TYPE": "Char",
              "@LENGTH": "200",
              "@ROLE": "Topic",
              "@CORE": "Perm",
              "@CONTROLLED": "",
              "description": "",
              "@ORIGIN": "Assigned",
              "@ORDER": "31",
              "@Comments": ""
            },
            {
              "text": "COVAL11",
              "name": "Comment",
              "@TYPE": "Char",
              "@LENGTH": "200",
              "@ROLE": "Topic",
              "@CORE": "Perm",
              "@CONTROLLED": "",
              "description": "",
              "@ORIGIN": "Assigned",
              "@ORDER": "32",
              "@Comments": ""
            },
            {
              "text": "COVAL12",
              "name": "Comment",
              "@TYPE": "Char",
              "@LENGTH": "200",
              "@ROLE": "Topic",
              "@CORE": "Perm",
              "@CONTROLLED": "",
              "description": "",
              "@ORIGIN": "Assigned",
              "@ORDER": "33",
              "@Comments": ""
            },
            {
              "text": "COVAL13",
              "name": "Comment",
              "@TYPE": "Char",
              "@LENGTH": "200",
              "@ROLE": "Topic",
              "@CORE": "Perm",
              "@CONTROLLED": "",
              "description": "",
              "@ORIGIN": "Assigned",
              "@ORDER": "34",
              "@Comments": ""
            },
            {
              "text": "COVAL14",
              "name": "Comment",
              "@TYPE": "Char",
              "@LENGTH": "200",
              "@ROLE": "Topic",
              "@CORE": "Perm",
              "@CONTROLLED": "",
              "description": "",
              "@ORIGIN": "Assigned",
              "@ORDER": "35",
              "@Comments": ""
            },
            {
              "text": "COVAL15",
              "name": "Comment",
              "@TYPE": "Char",
              "@LENGTH": "200",
              "@ROLE": "Topic",
              "@CORE": "Perm",
              "@CONTROLLED": "",
              "description": "",
              "@ORIGIN": "Assigned",
              "@ORDER": "36",
              "@Comments": ""
            },
            {
              "text": "COVAL16",
              "name": "Comment",
              "@TYPE": "Char",
              "@LENGTH": "200",
              "@ROLE": "Topic",
              "@CORE": "Perm",
              "@CONTROLLED": "",
              "description": "",
              "@ORIGIN": "Assigned",
              "@ORDER": "37",
              "@Comments": ""
            },
            {
              "text": "COVAL17",
              "name": "Comment",
              "@TYPE": "Char",
              "@LENGTH": "200",
              "@ROLE": "Topic",
              "@CORE": "Perm",
              "@CONTROLLED": "",
              "description": "",
              "@ORIGIN": "Assigned",
              "@ORDER": "38",
              "@Comments": ""
            },
            {
              "text": "COVAL18",
              "name": "Comment",
              "@TYPE": "Char",
              "@LENGTH": "200",
              "@ROLE": "Topic",
              "@CORE": "Perm",
              "@CONTROLLED": "",
              "description": "",
              "@ORIGIN": "Assigned",
              "@ORDER": "39",
              "@Comments": ""
            },
            {
              "text": "COVAL19",
              "name": "Comment",
              "@TYPE": "Char",
              "@LENGTH": "200",
              "@ROLE": "Topic",
              "@CORE": "Perm",
              "@CONTROLLED": "",
              "description": "",
              "@ORIGIN": "Assigned",
              "@ORDER": "40",
              "@Comments": ""
            },
            {
              "text": "COVAL20",
              "name": "Comment",
              "@TYPE": "Char",
              "@LENGTH": "200",
              "@ROLE": "Topic",
              "@CORE": "Perm",
              "@CONTROLLED": "",
              "description": "",
              "@ORIGIN": "Assigned",
              "@ORDER": "41",
              "@Comments": ""
            },
            {
              "text": "COEVAL",
              "name": "Evaluator",
              "@TYPE": "Char",
              "@LENGTH": "20",
              "@ROLE": "Record Qualifier",
              "@CORE": "Perm",
              "@CONTROLLED": "",
              "description": "",
              "@ORIGIN": "Assigned",
              "@ORDER": "42",
              "@Comments": ""
            },
            {
              "text": "CODTC",
              "name": "Date/Time of Comment",
              "@TYPE": "Char",
              "@LENGTH": "20",
              "@ROLE": "Timing",
              "@CORE": "Perm",
              "@CONTROLLED": "ISO 8601",
              "description": "",
              "@ORIGIN": "Assigned",
              "@ORDER": "105",
              "@Comments": ""
            },
            {
              "text": "CODY",
              "name": "Study Day of Visit/Collection/Exam",
              "@TYPE": "Num",
              "@LENGTH": "8",
              "@ROLE": "Timing",
              "@CORE": "Perm",
              "@CONTROLLED": "",
              "description": "",
              "@ORIGIN": "Derived",
              "@ORDER": "108",
              "@Comments": "Relative study day between <CODTC> and DM.RFSTDTC. Add 1 if the difference is greater than or equal to 0."
            }
          ]
        },
        {
          "name": "SE",
          "text": "Subject Elements",
          "structure": "One record per actual Element per subject",
          "class": "Special Purpose Domains",
          "description": "",
          "children": [
            {
              "text": "STUDYID",
              "name": "Study Identifier",
              "@TYPE": "Char",
              "@LENGTH": "20",
              "@ROLE": "Identifier",
              "@CORE": "Req",
              "@CONTROLLED": "",
              "description": "",
              "@ORIGIN": "Assigned",
              "@ORDER": "1",
              "@Comments": ""
            },
            {
              "text": "DOMAIN",
              "name": "Domain Abbreviation",
              "@TYPE": "Char",
              "@LENGTH": "2",
              "@ROLE": "Identifier",
              "@CORE": "Req",
              "@CONTROLLED": "",
              "description": "",
              "@ORIGIN": "Assigned",
              "@ORDER": "2",
              "@Comments": ""
            },
            {
              "text": "USUBJID",
              "name": "Unique Subject Identifier",
              "@TYPE": "Char",
              "@LENGTH": "25",
              "@ROLE": "Identifier",
              "@CORE": "Req",
              "@CONTROLLED": "",
              "description": "",
              "@ORIGIN": "Derived",
              "@ORDER": "4",
              "@Comments": "Concatenate STUDYID, SITEID and SUBJID, separated by \"-\"."
            },
            {
              "text": "SESEQ",
              "name": "Sequence Number",
              "@TYPE": "Num",
              "@LENGTH": "8",
              "@ROLE": "Identifier",
              "@CORE": "Req",
              "@CONTROLLED": "",
              "description": "",
              "@ORIGIN": "Derived",
              "@ORDER": "8",
              "@Comments": "Sort by the key variables specified in the domain list. Assign SESEQ=1 to the first record and increment SESEQ by 1 for each additional record so that SESEQ is unique for each record within a USUBJID."
            },
            {
              "text": "ETCD",
              "name": "Element Code",
              "@TYPE": "Char",
              "@LENGTH": "8",
              "@ROLE": "Topic",
              "@CORE": "Req",
              "@CONTROLLED": "",
              "description": "",
              "@ORIGIN": "Assigned",
              "@ORDER": "22",
              "@Comments": ""
            },
            {
              "text": "ELEMENT",
              "name": "Description of Element",
              "@TYPE": "Char",
              "@LENGTH": "200",
              "@ROLE": "Synonym Qualifier",
              "@CORE": "Perm",
              "@CONTROLLED": "",
              "description": "",
              "@ORIGIN": "Assigned",
              "@ORDER": "23",
              "@Comments": ""
            },
            {
              "text": "SESTDTC",
              "name": "Start Date/Time of Element",
              "@TYPE": "Char",
              "@LENGTH": "20",
              "@ROLE": "Timing",
              "@CORE": "Req",
              "@CONTROLLED": "ISO 8601",
              "description": "",
              "@ORIGIN": "Assigned",
              "@ORDER": "106",
              "@Comments": ""
            },
            {
              "text": "SEENDTC",
              "name": "End Date/Time of Element",
              "@TYPE": "Char",
              "@LENGTH": "20",
              "@ROLE": "Timing",
              "@CORE": "Exp",
              "@CONTROLLED": "ISO 8601",
              "description": "",
              "@ORIGIN": "Assigned",
              "@ORDER": "107",
              "@Comments": ""
            },
            {
              "text": "SESTDY",
              "name": "Study Day of Start of Observation",
              "@TYPE": "Num",
              "@LENGTH": "8",
              "@ROLE": "Timing",
              "@CORE": "Perm",
              "@CONTROLLED": "",
              "description": "",
              "@ORIGIN": "Derived",
              "@ORDER": "109",
              "@Comments": "Relative study day between <SESTDTC> and DM.RFSTDTC. Add 1 if the difference is greater than or equal to 0."
            },
            {
              "text": "SEENDY",
              "name": "Study Day of End of Observation",
              "@TYPE": "Num",
              "@LENGTH": "8",
              "@ROLE": "Timing",
              "@CORE": "Perm",
              "@CONTROLLED": "",
              "description": "",
              "@ORIGIN": "Derived",
              "@ORDER": "110",
              "@Comments": "Relative study day between <SEENDTC> and DM.RFSTDTC. Add 1 if the difference is greater than or equal to 0."
            },
            {
              "text": "TAETORD",
              "name": "Planned Order of Element within Arm",
              "@TYPE": "Num",
              "@LENGTH": "8",
              "@ROLE": "Timing",
              "@CORE": "Perm",
              "@CONTROLLED": "",
              "description": "",
              "@ORIGIN": "Assigned",
              "@ORDER": "103",
              "@Comments": ""
            },
            {
              "text": "EPOCH",
              "name": "Epoch",
              "@TYPE": "Char",
              "@LENGTH": "50",
              "@ROLE": "Timing",
              "@CORE": "Perm",
              "@CONTROLLED": "",
              "description": "",
              "@ORIGIN": "Assigned",
              "@ORDER": "104",
              "@Comments": ""
            },
            {
              "text": "SEUPDES",
              "name": "Description of Unplanned Element",
              "@TYPE": "Char",
              "@LENGTH": "200",
              "@ROLE": "Synonym Qualifier",
              "@CORE": "Perm",
              "@CONTROLLED": "",
              "description": "",
              "@ORIGIN": "Assigned",
              "@ORDER": "125",
              "@Comments": ""
            }
          ]
        },
        {
          "name": "SV",
          "text": "Subject Visits",
          "structure": "One record per actual visit per subject",
          "class": "Special Purpose Domains",
          "description": "",
          "children": [
            {
              "text": "STUDYID",
              "name": "Study Identifier",
              "@TYPE": "Char",
              "@LENGTH": "20",
              "@ROLE": "Identifier",
              "@CORE": "Req",
              "@CONTROLLED": "",
              "description": "",
              "@ORIGIN": "Assigned",
              "@ORDER": "1",
              "@Comments": ""
            },
            {
              "text": "DOMAIN",
              "name": "Domain Abbreviation",
              "@TYPE": "Char",
              "@LENGTH": "2",
              "@ROLE": "Identifier",
              "@CORE": "Req",
              "@CONTROLLED": "",
              "description": "",
              "@ORIGIN": "Assigned",
              "@ORDER": "2",
              "@Comments": ""
            },
            {
              "text": "USUBJID",
              "name": "Unique Subject Identifier",
              "@TYPE": "Char",
              "@LENGTH": "25",
              "@ROLE": "Identifier",
              "@CORE": "Req",
              "@CONTROLLED": "",
              "description": "",
              "@ORIGIN": "Derived",
              "@ORDER": "4",
              "@Comments": "Concatenate STUDYID, SITEID and SUBJID, separated by \"-\"."
            },
            {
              "text": "VISITNUM",
              "name": "Visit Number",
              "@TYPE": "Num",
              "@LENGTH": "8",
              "@ROLE": "Topic",
              "@CORE": "Req",
              "@CONTROLLED": "",
              "description": "",
              "@ORIGIN": "Assigned",
              "@ORDER": "100",
              "@Comments": ""
            },
            {
              "text": "VISIT",
              "name": "Visit Name",
              "@TYPE": "Char",
              "@LENGTH": "200",
              "@ROLE": "Synonym Qualifier",
              "@CORE": "Perm",
              "@CONTROLLED": "",
              "description": "",
              "@ORIGIN": "Assigned",
              "@ORDER": "101",
              "@Comments": ""
            },
            {
              "text": "VISITDY",
              "name": "Planned Study Day of Visit",
              "@TYPE": "Num",
              "@LENGTH": "8",
              "@ROLE": "Timing",
              "@CORE": "Perm",
              "@CONTROLLED": "",
              "description": "",
              "@ORIGIN": "Protocol",
              "@ORDER": "102",
              "@Comments": ""
            },
            {
              "text": "SVDTC",
              "name": "Date/Time of Collection",
              "@TYPE": "Char",
              "@LENGTH": "20",
              "@ROLE": "Timing",
              "@CORE": "Perm",
              "@CONTROLLED": "ISO 8601",
              "description": "",
              "@ORIGIN": "Assigned",
              "@ORDER": "105",
              "@Comments": ""
            },
            {
              "text": "SVSTDTC",
              "name": "Start Date/Time of Visit",
              "@TYPE": "Char",
              "@LENGTH": "20",
              "@ROLE": "Timing",
              "@CORE": "Exp",
              "@CONTROLLED": "ISO 8601",
              "description": "",
              "@ORIGIN": "Derived",
              "@ORDER": "106",
              "@Comments": "Equal to first date/time of visit"
            },
            {
              "text": "SVENDTC",
              "name": "End Date/Time of Visit",
              "@TYPE": "Char",
              "@LENGTH": "20",
              "@ROLE": "Timing",
              "@CORE": "Exp",
              "@CONTROLLED": "ISO 8601",
              "description": "",
              "@ORIGIN": "Derived",
              "@ORDER": "107",
              "@Comments": "Equal to last date/time of visit"
            },
            {
              "text": "SVDY",
              "name": "Study Day of Visit/Collection/Exam",
              "@TYPE": "Num",
              "@LENGTH": "8",
              "@ROLE": "Timing",
              "@CORE": "Perm",
              "@CONTROLLED": "",
              "description": "",
              "@ORIGIN": "Derived",
              "@ORDER": "108",
              "@Comments": "Relative study day between <SVDTC> and DM.RFSTDTC. Add 1 if the difference is greater than or equal to 0."
            },
            {
              "text": "SVSTDY",
              "name": "Study Day of Start of Visit",
              "@TYPE": "Num",
              "@LENGTH": "8",
              "@ROLE": "Timing",
              "@CORE": "Perm",
              "@CONTROLLED": "",
              "description": "",
              "@ORIGIN": "Derived",
              "@ORDER": "109",
              "@Comments": "Relative study day between <SVSTDTC> and DM.RFSTDTC. Add 1 if the difference is greater than or equal to 0."
            },
            {
              "text": "SVENDY",
              "name": "Study Day of End of Visit",
              "@TYPE": "Num",
              "@LENGTH": "8",
              "@ROLE": "Timing",
              "@CORE": "Perm",
              "@CONTROLLED": "",
              "description": "",
              "@ORIGIN": "Derived",
              "@ORDER": "110",
              "@Comments": "Relative study day between <SVENDTC> and DM.RFSTDTC. Add 1 if the difference is greater than or equal to 0."
            },
            {
              "text": "SVUPDES",
              "name": "Description of Unplanned Visit",
              "@TYPE": "Char",
              "@LENGTH": "200",
              "@ROLE": "Synonym Qualifier",
              "@CORE": "Perm",
              "@CONTROLLED": "",
              "description": "",
              "@ORIGIN": "Assigned",
              "@ORDER": "125",
              "@Comments": ""
            }
          ]
        },
        {
          "name": "CM",
          "text": "Concomitant Medications",
          "structure": "One record per recorded medication occurrence or constant-dosing interval per subject",
          "class": "Interventions",
          "description": "",
          "children": [
            {
              "text": "STUDYID",
              "name": "Study Identifier",
              "@TYPE": "Char",
              "@LENGTH": "20",
              "@ROLE": "Identifier",
              "@CORE": "Req",
              "@CONTROLLED": "",
              "description": "",
              "@ORIGIN": "Assigned",
              "@ORDER": "1",
              "@Comments": ""
            },
            {
              "text": "DOMAIN",
              "name": "Domain Abbreviation",
              "@TYPE": "Char",
              "@LENGTH": "2",
              "@ROLE": "Identifier",
              "@CORE": "Req",
              "@CONTROLLED": "",
              "description": "",
              "@ORIGIN": "Assigned",
              "@ORDER": "2",
              "@Comments": ""
            },
            {
              "text": "USUBJID",
              "name": "Unique Subject Identifier",
              "@TYPE": "Char",
              "@LENGTH": "25",
              "@ROLE": "Identifier",
              "@CORE": "Req",
              "@CONTROLLED": "",
              "description": "",
              "@ORIGIN": "Derived",
              "@ORDER": "4",
              "@Comments": "Concatenate STUDYID, SITEID and SUBJID, separated by \"-\"."
            },
            {
              "text": "CMSEQ",
              "name": "Sequence Number",
              "@TYPE": "Num",
              "@LENGTH": "8",
              "@ROLE": "Identifier",
              "@CORE": "Req",
              "@CONTROLLED": "",
              "description": "",
              "@ORIGIN": "Derived",
              "@ORDER": "8",
              "@Comments": "Sort by the key variables specified in the domain list. Assign CMSEQ=1 to the first record and increment CMSEQ by 1 for each additional record so that CMSEQ is unique for each record within a USUBJID."
            },
            {
              "text": "CMGRPID",
              "name": "Group ID",
              "@TYPE": "Char",
              "@LENGTH": "20",
              "@ROLE": "Identifier",
              "@CORE": "Perm",
              "@CONTROLLED": "",
              "description": "",
              "@ORIGIN": "Assigned",
              "@ORDER": "9",
              "@Comments": ""
            },
            {
              "text": "CMSPID",
              "name": "Sponsor-Defined Identifier",
              "@TYPE": "Char",
              "@LENGTH": "20",
              "@ROLE": "Identifier",
              "@CORE": "Perm",
              "@CONTROLLED": "",
              "description": "",
              "@ORIGIN": "Assigned",
              "@ORDER": "11",
              "@Comments": ""
            },
            {
              "text": "CMTRT",
              "name": "Reported Name of Drug, Med, or Therapy",
              "@TYPE": "Char",
              "@LENGTH": "200",
              "@ROLE": "Topic",
              "@CORE": "Req",
              "@CONTROLLED": "",
              "description": "",
              "@ORIGIN": "Assigned",
              "@ORDER": "20",
              "@Comments": ""
            },
            {
              "text": "CMMODIFY",
              "name": "Modified Reported Name",
              "@TYPE": "Char",
              "@LENGTH": "200",
              "@ROLE": "Synonym Qualifier",
              "@CORE": "Perm",
              "@CONTROLLED": "",
              "description": "",
              "@ORIGIN": "Assigned",
              "@ORDER": "21",
              "@Comments": ""
            },
            {
              "text": "CMDECOD",
              "name": "Standardized Medication Name",
              "@TYPE": "Char",
              "@LENGTH": "200",
              "@ROLE": "Synonym Qualifier",
              "@CORE": "Perm",
              "@CONTROLLED": "(DRUGDICT)",
              "description": "",
              "@ORIGIN": "Assigned",
              "@ORDER": "22",
              "@Comments": "WHODRUG Version 2010.09"
            },
            {
              "text": "CMCAT",
              "name": "Category for Medication",
              "@TYPE": "Char",
              "@LENGTH": "200",
              "@ROLE": "Grouping Qualifier",
              "@CORE": "Perm",
              "@CONTROLLED": "",
              "description": "",
              "@ORIGIN": "Assigned",
              "@ORDER": "23",
              "@Comments": ""
            },
            {
              "text": "CMSCAT",
              "name": "Subcategory for Medication",
              "@TYPE": "Char",
              "@LENGTH": "200",
              "@ROLE": "Grouping Qualifier",
              "@CORE": "Perm",
              "@CONTROLLED": "",
              "description": "",
              "@ORIGIN": "Assigned",
              "@ORDER": "24",
              "@Comments": ""
            },
            {
              "text": "CMPRESP",
              "name": "CM Pre-Specified",
              "@TYPE": "Char",
              "@LENGTH": "1",
              "@ROLE": "Record Qualifier",
              "@CORE": "Perm",
              "@CONTROLLED": "(NY)",
              "description": "",
              "@ORIGIN": "Assigned",
              "@ORDER": "25",
              "@Comments": ""
            },
            {
              "text": "CMOCCUR",
              "name": "CM Occurrence",
              "@TYPE": "Char",
              "@LENGTH": "1",
              "@ROLE": "Record Qualifier",
              "@CORE": "Perm",
              "@CONTROLLED": "(NY)",
              "description": "",
              "@ORIGIN": "Assigned",
              "@ORDER": "26",
              "@Comments": ""
            },
            {
              "text": "CMSTAT",
              "name": "Completion Status",
              "@TYPE": "Char",
              "@LENGTH": "8",
              "@ROLE": "Record Qualifier",
              "@CORE": "Perm",
              "@CONTROLLED": "(ND)",
              "description": "",
              "@ORIGIN": "Assigned",
              "@ORDER": "27",
              "@Comments": ""
            },
            {
              "text": "CMREASND",
              "name": "Reason Medication Not Collected",
              "@TYPE": "Char",
              "@LENGTH": "200",
              "@ROLE": "Record Qualifier",
              "@CORE": "Perm",
              "@CONTROLLED": "",
              "description": "",
              "@ORIGIN": "Assigned",
              "@ORDER": "28",
              "@Comments": ""
            },
            {
              "text": "CMINDC",
              "name": "Indication",
              "@TYPE": "Char",
              "@LENGTH": "200",
              "@ROLE": "Record Qualifier",
              "@CORE": "Perm",
              "@CONTROLLED": "",
              "description": "",
              "@ORIGIN": "Assigned",
              "@ORDER": "29",
              "@Comments": ""
            },
            {
              "text": "CMCLAS",
              "name": "Medication Class",
              "@TYPE": "Char",
              "@LENGTH": "200",
              "@ROLE": "Variable Qualifier",
              "@CORE": "Perm",
              "@CONTROLLED": "",
              "description": "",
              "@ORIGIN": "Assigned",
              "@ORDER": "30",
              "@Comments": "WHODRUG Version 2010.09"
            },
            {
              "text": "CMCLASCD",
              "name": "Medication Class Code",
              "@TYPE": "Char",
              "@LENGTH": "8",
              "@ROLE": "Variable Qualifier",
              "@CORE": "Perm",
              "@CONTROLLED": "",
              "description": "",
              "@ORIGIN": "Assigned",
              "@ORDER": "31",
              "@Comments": "WHODRUG Version 2010.09"
            },
            {
              "text": "CMDOSE",
              "name": "Dose per Administration",
              "@TYPE": "Num",
              "@LENGTH": "8",
              "@ROLE": "Record Qualifier",
              "@CORE": "Perm",
              "@CONTROLLED": "",
              "description": "",
              "@ORIGIN": "Assigned",
              "@ORDER": "32",
              "@Comments": ""
            },
            {
              "text": "CMDOSTXT",
              "name": "Dose Description",
              "@TYPE": "Char",
              "@LENGTH": "200",
              "@ROLE": "Record Qualifier",
              "@CORE": "Perm",
              "@CONTROLLED": "",
              "description": "",
              "@ORIGIN": "Assigned",
              "@ORDER": "33",
              "@Comments": ""
            },
            {
              "text": "CMDOSU",
              "name": "Dose Units",
              "@TYPE": "Char",
              "@LENGTH": "20",
              "@ROLE": "Variable Qualifier",
              "@CORE": "Perm",
              "@CONTROLLED": "(UNIT)",
              "description": "",
              "@ORIGIN": "Assigned",
              "@ORDER": "34",
              "@Comments": ""
            },
            {
              "text": "CMDOSFRM",
              "name": "Dose Form",
              "@TYPE": "Char",
              "@LENGTH": "200",
              "@ROLE": "Variable Qualifier",
              "@CORE": "Perm",
              "@CONTROLLED": "(FRM)",
              "description": "",
              "@ORIGIN": "Assigned",
              "@ORDER": "35",
              "@Comments": ""
            },
            {
              "text": "CMDOSFRQ",
              "name": "Dosing Frequency per Interval",
              "@TYPE": "Char",
              "@LENGTH": "50",
              "@ROLE": "Variable Qualifier",
              "@CORE": "Perm",
              "@CONTROLLED": "(FREQ)",
              "description": "",
              "@ORIGIN": "Assigned",
              "@ORDER": "36",
              "@Comments": ""
            },
            {
              "text": "CMDOSTOT",
              "name": "Total Daily Dose",
              "@TYPE": "Num",
              "@LENGTH": "8",
              "@ROLE": "Record Qualifier",
              "@CORE": "Perm",
              "@CONTROLLED": "",
              "description": "",
              "@ORIGIN": "Assigned",
              "@ORDER": "37",
              "@Comments": ""
            },
            {
              "text": "CMDOSRGM",
              "name": "Intended Dose Regimen",
              "@TYPE": "Char",
              "@LENGTH": "50",
              "@ROLE": "Variable Qualifier",
              "@CORE": "Perm",
              "@CONTROLLED": "",
              "description": "",
              "@ORIGIN": "Assigned",
              "@ORDER": "38",
              "@Comments": ""
            },
            {
              "text": "CMROUTE",
              "name": "Route of Administration",
              "@TYPE": "Char",
              "@LENGTH": "50",
              "@ROLE": "Variable Qualifier",
              "@CORE": "Perm",
              "@CONTROLLED": "(ROUTE)",
              "description": "",
              "@ORIGIN": "Assigned",
              "@ORDER": "39",
              "@Comments": ""
            },
            {
              "text": "CMSTDTC",
              "name": "Start Date/Time of Medication",
              "@TYPE": "Char",
              "@LENGTH": "20",
              "@ROLE": "Timing",
              "@CORE": "Perm",
              "@CONTROLLED": "ISO 8601",
              "description": "",
              "@ORIGIN": "Assigned",
              "@ORDER": "106",
              "@Comments": ""
            },
            {
              "text": "CMENDTC",
              "name": "End Date/Time of Medication",
              "@TYPE": "Char",
              "@LENGTH": "20",
              "@ROLE": "Timing",
              "@CORE": "Perm",
              "@CONTROLLED": "ISO 8601",
              "description": "",
              "@ORIGIN": "Assigned",
              "@ORDER": "107",
              "@Comments": ""
            },
            {
              "text": "CMSTDY",
              "name": "Study Day of Start of Medication",
              "@TYPE": "Num",
              "@LENGTH": "8",
              "@ROLE": "Timing",
              "@CORE": "Perm",
              "@CONTROLLED": "",
              "description": "",
              "@ORIGIN": "Derived",
              "@ORDER": "109",
              "@Comments": "Relative study day between <CMSTDTC> and DM.RFSTDTC. Add 1 if the difference is greater than or equal to 0."
            },
            {
              "text": "CMENDY",
              "name": "Study Day of End of Medication",
              "@TYPE": "Num",
              "@LENGTH": "8",
              "@ROLE": "Timing",
              "@CORE": "Perm",
              "@CONTROLLED": "",
              "description": "",
              "@ORIGIN": "Derived",
              "@ORDER": "110",
              "@Comments": "Relative study day between <CMENDTC> and DM.RFSTDTC. Add 1 if the difference is greater than or equal to 0."
            },
            {
              "text": "CMDUR",
              "name": "Duration of Medication",
              "@TYPE": "Char",
              "@LENGTH": "50",
              "@ROLE": "Timing",
              "@CORE": "Perm",
              "@CONTROLLED": "ISO 8601",
              "description": "",
              "@ORIGIN": "Assigned",
              "@ORDER": "111",
              "@Comments": ""
            },
            {
              "text": "CMSTRF",
              "name": "Start Relative to Reference Period",
              "@TYPE": "Char",
              "@LENGTH": "12",
              "@ROLE": "Timing",
              "@CORE": "Perm",
              "@CONTROLLED": "(STENRF)",
              "description": "",
              "@ORIGIN": "Assigned",
              "@ORDER": "117",
              "@Comments": ""
            },
            {
              "text": "CMENRF",
              "name": "End Relative to Reference Period",
              "@TYPE": "Char",
              "@LENGTH": "12",
              "@ROLE": "Timing",
              "@CORE": "Perm",
              "@CONTROLLED": "(STENRF)",
              "description": "",
              "@ORIGIN": "Assigned",
              "@ORDER": "118",
              "@Comments": ""
            },
            {
              "text": "CMSTRTPT",
              "name": "Start Relative to Reference Time Point",
              "@TYPE": "Char",
              "@LENGTH": "12",
              "@ROLE": "Timing",
              "@CORE": "Perm",
              "@CONTROLLED": "(STENRF)",
              "description": "",
              "@ORIGIN": "Assigned",
              "@ORDER": "120",
              "@Comments": ""
            },
            {
              "text": "CMSTTPT",
              "name": "Start Reference Time Point",
              "@TYPE": "Char",
              "@LENGTH": "200",
              "@ROLE": "Timing",
              "@CORE": "Perm",
              "@CONTROLLED": "",
              "description": "",
              "@ORIGIN": "Assigned",
              "@ORDER": "121",
              "@Comments": ""
            },
            {
              "text": "CMENRTPT",
              "name": "End Relative to Reference Time Point",
              "@TYPE": "Char",
              "@LENGTH": "12",
              "@ROLE": "Timing",
              "@CORE": "Perm",
              "@CONTROLLED": "(STENRF)",
              "description": "",
              "@ORIGIN": "Assigned",
              "@ORDER": "122",
              "@Comments": ""
            },
            {
              "text": "CMENTPT",
              "name": "End Reference Time Point",
              "@TYPE": "Char",
              "@LENGTH": "200",
              "@ROLE": "Timing",
              "@CORE": "Perm",
              "@CONTROLLED": "",
              "description": "",
              "@ORIGIN": "Assigned",
              "@ORDER": "123",
              "@Comments": ""
            }
          ]
        },
        {
          "name": "EX",
          "text": "Exposure",
          "structure": "One record per constant dosing interval per subject",
          "class": "Interventions",
          "description": "",
          "children": [
            {
              "text": "STUDYID",
              "name": "Study Identifier",
              "@TYPE": "Char",
              "@LENGTH": "20",
              "@ROLE": "Identifier",
              "@CORE": "Req",
              "@CONTROLLED": "",
              "description": "",
              "@ORIGIN": "Assigned",
              "@ORDER": "1",
              "@Comments": ""
            },
            {
              "text": "DOMAIN",
              "name": "Domain Abbreviation",
              "@TYPE": "Char",
              "@LENGTH": "2",
              "@ROLE": "Identifier",
              "@CORE": "Req",
              "@CONTROLLED": "",
              "description": "",
              "@ORIGIN": "Assigned",
              "@ORDER": "2",
              "@Comments": ""
            },
            {
              "text": "USUBJID",
              "name": "Unique Subject Identifier",
              "@TYPE": "Char",
              "@LENGTH": "25",
              "@ROLE": "Identifier",
              "@CORE": "Req",
              "@CONTROLLED": "",
              "description": "",
              "@ORIGIN": "Derived",
              "@ORDER": "4",
              "@Comments": "Concatenate STUDYID, SITEID and SUBJID, separated by \"-\"."
            },
            {
              "text": "EXSEQ",
              "name": "Sequence Number",
              "@TYPE": "Num",
              "@LENGTH": "8",
              "@ROLE": "Identifier",
              "@CORE": "Req",
              "@CONTROLLED": "",
              "description": "",
              "@ORIGIN": "Derived",
              "@ORDER": "8",
              "@Comments": "Sort by the key variables specified in the domain list. Assign EXSEQ=1 to the first record and increment EXSEQ by 1 for each additional record so that EXSEQ is unique for each record within a USUBJID."
            },
            {
              "text": "EXGRPID",
              "name": "Group ID",
              "@TYPE": "Char",
              "@LENGTH": "20",
              "@ROLE": "Identifier",
              "@CORE": "Perm",
              "@CONTROLLED": "",
              "description": "",
              "@ORIGIN": "Assigned",
              "@ORDER": "9",
              "@Comments": ""
            },
            {
              "text": "EXREFID",
              "name": "Reference ID",
              "@TYPE": "Char",
              "@LENGTH": "20",
              "@ROLE": "Identifier",
              "@CORE": "Perm",
              "@CONTROLLED": "",
              "description": "",
              "@ORIGIN": "Assigned",
              "@ORDER": "10",
              "@Comments": ""
            },
            {
              "text": "EXSPID",
              "name": "Sponsor-Defined Identifier",
              "@TYPE": "Char",
              "@LENGTH": "20",
              "@ROLE": "Identifier",
              "@CORE": "Perm",
              "@CONTROLLED": "",
              "description": "",
              "@ORIGIN": "Assigned",
              "@ORDER": "11",
              "@Comments": ""
            },
            {
              "text": "EXTRT",
              "name": "Name of Actual Treatment",
              "@TYPE": "Char",
              "@LENGTH": "200",
              "@ROLE": "Topic",
              "@CORE": "Req",
              "@CONTROLLED": "",
              "description": "",
              "@ORIGIN": "Assigned",
              "@ORDER": "20",
              "@Comments": ""
            },
            {
              "text": "EXCAT",
              "name": "Category for Treatment",
              "@TYPE": "Char",
              "@LENGTH": "200",
              "@ROLE": "Grouping Qualifier",
              "@CORE": "Perm",
              "@CONTROLLED": "",
              "description": "",
              "@ORIGIN": "Assigned",
              "@ORDER": "23",
              "@Comments": ""
            },
            {
              "text": "EXSCAT",
              "name": "Subcategory for Treatment",
              "@TYPE": "Char",
              "@LENGTH": "200",
              "@ROLE": "Grouping Qualifier",
              "@CORE": "Perm",
              "@CONTROLLED": "",
              "description": "",
              "@ORIGIN": "Assigned",
              "@ORDER": "24",
              "@Comments": ""
            },
            {
              "text": "EXDOSE",
              "name": "Dose per Administration",
              "@TYPE": "Num",
              "@LENGTH": "8",
              "@ROLE": "Record Qualifier",
              "@CORE": "Exp",
              "@CONTROLLED": "",
              "description": "",
              "@ORIGIN": "Assigned",
              "@ORDER": "32",
              "@Comments": ""
            },
            {
              "text": "EXDOSTXT",
              "name": "Dose Description",
              "@TYPE": "Char",
              "@LENGTH": "200",
              "@ROLE": "Record Qualifier",
              "@CORE": "Perm",
              "@CONTROLLED": "",
              "description": "",
              "@ORIGIN": "Assigned",
              "@ORDER": "33",
              "@Comments": ""
            },
            {
              "text": "EXDOSU",
              "name": "Dose Units",
              "@TYPE": "Char",
              "@LENGTH": "20",
              "@ROLE": "Variable Qualifier",
              "@CORE": "Exp",
              "@CONTROLLED": "(UNIT)",
              "description": "",
              "@ORIGIN": "Protocol",
              "@ORDER": "34",
              "@Comments": ""
            },
            {
              "text": "EXDOSFRM",
              "name": "Dose Form",
              "@TYPE": "Char",
              "@LENGTH": "200",
              "@ROLE": "Variable Qualifier",
              "@CORE": "Exp",
              "@CONTROLLED": "(FRM)",
              "description": "",
              "@ORIGIN": "Protocol",
              "@ORDER": "35",
              "@Comments": ""
            },
            {
              "text": "EXDOSFRQ",
              "name": "Dosing Frequency per Interval",
              "@TYPE": "Char",
              "@LENGTH": "50",
              "@ROLE": "Variable Qualifier",
              "@CORE": "Perm",
              "@CONTROLLED": "(FREQ)",
              "description": "",
              "@ORIGIN": "Protocol",
              "@ORDER": "36",
              "@Comments": ""
            },
            {
              "text": "EXDOSTOT",
              "name": "Total Daily Dose",
              "@TYPE": "Num",
              "@LENGTH": "8",
              "@ROLE": "Record Qualifier",
              "@CORE": "Perm",
              "@CONTROLLED": "",
              "description": "",
              "@ORIGIN": "Derived",
              "@ORDER": "37",
              "@Comments": "Derived from EXDOSE and EXDOSFRQ"
            },
            {
              "text": "EXDOSRGM",
              "name": "Intended Dose Regimen",
              "@TYPE": "Char",
              "@LENGTH": "50",
              "@ROLE": "Variable Qualifier",
              "@CORE": "Perm",
              "@CONTROLLED": "",
              "description": "",
              "@ORIGIN": "Protocol",
              "@ORDER": "38",
              "@Comments": ""
            },
            {
              "text": "EXROUTE",
              "name": "Route of Administration",
              "@TYPE": "Char",
              "@LENGTH": "50",
              "@ROLE": "Variable Qualifier",
              "@CORE": "Perm",
              "@CONTROLLED": "(ROUTE)",
              "description": "",
              "@ORIGIN": "Protocol",
              "@ORDER": "39",
              "@Comments": ""
            },
            {
              "text": "EXLOT",
              "name": "Lot Number",
              "@TYPE": "Char",
              "@LENGTH": "50",
              "@ROLE": "Record Qualifier",
              "@CORE": "Perm",
              "@CONTROLLED": "",
              "description": "",
              "@ORIGIN": "Assigned",
              "@ORDER": "40",
              "@Comments": ""
            },
            {
              "text": "EXLOC",
              "name": "Location of Dose Administration",
              "@TYPE": "Char",
              "@LENGTH": "200",
              "@ROLE": "Record Qualifier",
              "@CORE": "Perm",
              "@CONTROLLED": "(LOC)",
              "description": "",
              "@ORIGIN": "Protocol",
              "@ORDER": "41",
              "@Comments": ""
            },
            {
              "text": "EXTRTV",
              "name": "Treatment Vehicle",
              "@TYPE": "Char",
              "@LENGTH": "200",
              "@ROLE": "Record Qualifier",
              "@CORE": "Perm",
              "@CONTROLLED": "",
              "description": "",
              "@ORIGIN": "Protocol",
              "@ORDER": "42",
              "@Comments": ""
            },
            {
              "text": "EXVAMT",
              "name": "Treatment Vehicle Amount",
              "@TYPE": "Num",
              "@LENGTH": "8",
              "@ROLE": "Variable Qualifier",
              "@CORE": "Perm",
              "@CONTROLLED": "",
              "description": "",
              "@ORIGIN": "Protocol",
              "@ORDER": "43",
              "@Comments": ""
            },
            {
              "text": "EXVAMTU",
              "name": "Treatment Vehicle Amount Units",
              "@TYPE": "Char",
              "@LENGTH": "20",
              "@ROLE": "Variable Qualifier",
              "@CORE": "Perm",
              "@CONTROLLED": "(UNIT)",
              "description": "",
              "@ORIGIN": "Protocol",
              "@ORDER": "44",
              "@Comments": ""
            },
            {
              "text": "EXADJ",
              "name": "Reason for Dose Adjustment",
              "@TYPE": "Char",
              "@LENGTH": "200",
              "@ROLE": "Record Qualifier",
              "@CORE": "Perm",
              "@CONTROLLED": "",
              "description": "",
              "@ORIGIN": "Assigned",
              "@ORDER": "45",
              "@Comments": ""
            },
            {
              "text": "TAETORD",
              "name": "Planned Order of Element within Arm",
              "@TYPE": "Num",
              "@LENGTH": "8",
              "@ROLE": "Timing",
              "@CORE": "Perm",
              "@CONTROLLED": "",
              "description": "",
              "@ORIGIN": "Assigned",
              "@ORDER": "103",
              "@Comments": ""
            },
            {
              "text": "EPOCH",
              "name": "Epoch",
              "@TYPE": "Char",
              "@LENGTH": "50",
              "@ROLE": "Timing",
              "@CORE": "Perm",
              "@CONTROLLED": "",
              "description": "",
              "@ORIGIN": "Assigned",
              "@ORDER": "104",
              "@Comments": ""
            },
            {
              "text": "EXSTDTC",
              "name": "Start Date/Time of Treatment",
              "@TYPE": "Char",
              "@LENGTH": "20",
              "@ROLE": "Timing",
              "@CORE": "Exp",
              "@CONTROLLED": "ISO 8601",
              "description": "",
              "@ORIGIN": "Assigned",
              "@ORDER": "106",
              "@Comments": ""
            },
            {
              "text": "EXENDTC",
              "name": "End Date/Time of Treatment",
              "@TYPE": "Char",
              "@LENGTH": "20",
              "@ROLE": "Timing",
              "@CORE": "Perm",
              "@CONTROLLED": "ISO 8601",
              "description": "",
              "@ORIGIN": "Assigned",
              "@ORDER": "107",
              "@Comments": ""
            },
            {
              "text": "EXSTDY",
              "name": "Study Day of Start of Treatment",
              "@TYPE": "Num",
              "@LENGTH": "8",
              "@ROLE": "Timing",
              "@CORE": "Perm",
              "@CONTROLLED": "",
              "description": "",
              "@ORIGIN": "Derived",
              "@ORDER": "109",
              "@Comments": "Relative study day between <EXSTDTC> and DM.RFSTDTC. Add 1 if the difference is greater than or equal to 0."
            },
            {
              "text": "EXENDY",
              "name": "Study Day of End of Treatment",
              "@TYPE": "Num",
              "@LENGTH": "8",
              "@ROLE": "Timing",
              "@CORE": "Perm",
              "@CONTROLLED": "",
              "description": "",
              "@ORIGIN": "Derived",
              "@ORDER": "110",
              "@Comments": "Relative study day between <EXENDTC> and DM.RFSTDTC. Add 1 if the difference is greater than or equal to 0."
            },
            {
              "text": "EXDUR",
              "name": "Duration of Treatment",
              "@TYPE": "Char",
              "@LENGTH": "50",
              "@ROLE": "Timing",
              "@CORE": "Perm",
              "@CONTROLLED": "ISO 8601",
              "description": "",
              "@ORIGIN": "Assigned",
              "@ORDER": "111",
              "@Comments": ""
            },
            {
              "text": "EXTPT",
              "name": "Planned Time Point Name",
              "@TYPE": "Char",
              "@LENGTH": "200",
              "@ROLE": "Timing",
              "@CORE": "Perm",
              "@CONTROLLED": "",
              "description": "",
              "@ORIGIN": "Assigned",
              "@ORDER": "112",
              "@Comments": ""
            },
            {
              "text": "EXTPTNUM",
              "name": "Planned Time Point Number",
              "@TYPE": "Num",
              "@LENGTH": "8",
              "@ROLE": "Timing",
              "@CORE": "Perm",
              "@CONTROLLED": "",
              "description": "",
              "@ORIGIN": "Assigned",
              "@ORDER": "113",
              "@Comments": ""
            },
            {
              "text": "EXELTM",
              "name": "Planned Elapsed Time from Time Point Ref",
              "@TYPE": "Char",
              "@LENGTH": "20",
              "@ROLE": "Timing",
              "@CORE": "Perm",
              "@CONTROLLED": "ISO 8601",
              "description": "",
              "@ORIGIN": "Protocol",
              "@ORDER": "114",
              "@Comments": ""
            },
            {
              "text": "EXTPTREF",
              "name": "Time Point Reference",
              "@TYPE": "Char",
              "@LENGTH": "200",
              "@ROLE": "Timing",
              "@CORE": "Perm",
              "@CONTROLLED": "",
              "description": "",
              "@ORIGIN": "Assigned",
              "@ORDER": "115",
              "@Comments": ""
            }
          ]
        },
        {
          "name": "SU",
          "text": "Substance Use",
          "structure": "One record per substance type per reported occurrence per subject",
          "class": "Interventions",
          "description": "",
          "children": [
            {
              "text": "STUDYID",
              "name": "Study Identifier",
              "@TYPE": "Char",
              "@LENGTH": "20",
              "@ROLE": "Identifier",
              "@CORE": "Req",
              "@CONTROLLED": "",
              "description": "",
              "@ORIGIN": "Assigned",
              "@ORDER": "1",
              "@Comments": ""
            },
            {
              "text": "DOMAIN",
              "name": "Domain Abbreviation",
              "@TYPE": "Char",
              "@LENGTH": "2",
              "@ROLE": "Identifier",
              "@CORE": "Req",
              "@CONTROLLED": "",
              "description": "",
              "@ORIGIN": "Assigned",
              "@ORDER": "2",
              "@Comments": ""
            },
            {
              "text": "USUBJID",
              "name": "Unique Subject Identifier",
              "@TYPE": "Char",
              "@LENGTH": "25",
              "@ROLE": "Identifier",
              "@CORE": "Req",
              "@CONTROLLED": "",
              "description": "",
              "@ORIGIN": "Derived",
              "@ORDER": "4",
              "@Comments": "Concatenate STUDYID, SITEID and SUBJID, separated by \"-\"."
            },
            {
              "text": "SUSEQ",
              "name": "Sequence Number",
              "@TYPE": "Num",
              "@LENGTH": "8",
              "@ROLE": "Identifier",
              "@CORE": "Req",
              "@CONTROLLED": "",
              "description": "",
              "@ORIGIN": "Derived",
              "@ORDER": "8",
              "@Comments": "Sort by the key variables specified in the domain list. Assign SUSEQ=1 to the first record and increment SUSEQ by 1 for each additional record so that SUSEQ is unique for each record within a USUBJID."
            },
            {
              "text": "SUGRPID",
              "name": "Group ID",
              "@TYPE": "Char",
              "@LENGTH": "20",
              "@ROLE": "Identifier",
              "@CORE": "Perm",
              "@CONTROLLED": "",
              "description": "",
              "@ORIGIN": "Assigned",
              "@ORDER": "9",
              "@Comments": ""
            },
            {
              "text": "SUSPID",
              "name": "Sponsor-Defined Identifier",
              "@TYPE": "Char",
              "@LENGTH": "20",
              "@ROLE": "Identifier",
              "@CORE": "Perm",
              "@CONTROLLED": "",
              "description": "",
              "@ORIGIN": "Assigned",
              "@ORDER": "11",
              "@Comments": ""
            },
            {
              "text": "SUTRT",
              "name": "Reported Name of Substance",
              "@TYPE": "Char",
              "@LENGTH": "200",
              "@ROLE": "Topic",
              "@CORE": "Req",
              "@CONTROLLED": "",
              "description": "",
              "@ORIGIN": "Assigned",
              "@ORDER": "20",
              "@Comments": ""
            },
            {
              "text": "SUMODIFY",
              "name": "Modified Substance Name",
              "@TYPE": "Char",
              "@LENGTH": "200",
              "@ROLE": "Synonym Qualifier",
              "@CORE": "Perm",
              "@CONTROLLED": "",
              "description": "",
              "@ORIGIN": "Assigned",
              "@ORDER": "21",
              "@Comments": ""
            },
            {
              "text": "SUDECOD",
              "name": "Standardized Substance Name",
              "@TYPE": "Char",
              "@LENGTH": "200",
              "@ROLE": "Synonym Qualifier",
              "@CORE": "Perm",
              "@CONTROLLED": "",
              "description": "",
              "@ORIGIN": "Assigned",
              "@ORDER": "22",
              "@Comments": ""
            },
            {
              "text": "SUCAT",
              "name": "Category for Substance Use",
              "@TYPE": "Char",
              "@LENGTH": "200",
              "@ROLE": "Grouping Qualifier",
              "@CORE": "Perm",
              "@CONTROLLED": "",
              "description": "",
              "@ORIGIN": "Assigned",
              "@ORDER": "23",
              "@Comments": ""
            },
            {
              "text": "SUSCAT",
              "name": "Subcategory for Substance Use",
              "@TYPE": "Char",
              "@LENGTH": "200",
              "@ROLE": "Grouping Qualifier",
              "@CORE": "Perm",
              "@CONTROLLED": "",
              "description": "",
              "@ORIGIN": "Assigned",
              "@ORDER": "24",
              "@Comments": ""
            },
            {
              "text": "SUPRESP",
              "name": "SU Pre-Specified",
              "@TYPE": "Char",
              "@LENGTH": "1",
              "@ROLE": "Record Qualifier",
              "@CORE": "Perm",
              "@CONTROLLED": "(NY)",
              "description": "",
              "@ORIGIN": "Assigned",
              "@ORDER": "25",
              "@Comments": ""
            },
            {
              "text": "SUOCCUR",
              "name": "SU Occurrence",
              "@TYPE": "Char",
              "@LENGTH": "1",
              "@ROLE": "Record Qualifier",
              "@CORE": "Perm",
              "@CONTROLLED": "(NY)",
              "description": "",
              "@ORIGIN": "Assigned",
              "@ORDER": "26",
              "@Comments": ""
            },
            {
              "text": "SUSTAT",
              "name": "Completion Status",
              "@TYPE": "Char",
              "@LENGTH": "8",
              "@ROLE": "Record Qualifier",
              "@CORE": "Perm",
              "@CONTROLLED": "(ND)",
              "description": "",
              "@ORIGIN": "Assigned",
              "@ORDER": "27",
              "@Comments": ""
            },
            {
              "text": "SUREASND",
              "name": "Reason Substance Use Not Collected",
              "@TYPE": "Char",
              "@LENGTH": "200",
              "@ROLE": "Record Qualifier",
              "@CORE": "Perm",
              "@CONTROLLED": "",
              "description": "",
              "@ORIGIN": "Assigned",
              "@ORDER": "28",
              "@Comments": ""
            },
            {
              "text": "SUCLAS",
              "name": "Substance Use Class",
              "@TYPE": "Char",
              "@LENGTH": "200",
              "@ROLE": "Variable Qualifier",
              "@CORE": "Perm",
              "@CONTROLLED": "",
              "description": "",
              "@ORIGIN": "Assigned",
              "@ORDER": "30",
              "@Comments": ""
            },
            {
              "text": "SUCLASCD",
              "name": "Substance Use Class Code",
              "@TYPE": "Char",
              "@LENGTH": "8",
              "@ROLE": "Variable Qualifier",
              "@CORE": "Perm",
              "@CONTROLLED": "",
              "description": "",
              "@ORIGIN": "Assigned",
              "@ORDER": "31",
              "@Comments": ""
            },
            {
              "text": "SUDOSE",
              "name": "Substance Use Consumption",
              "@TYPE": "Num",
              "@LENGTH": "8",
              "@ROLE": "Record Qualifier",
              "@CORE": "Perm",
              "@CONTROLLED": "",
              "description": "",
              "@ORIGIN": "Assigned",
              "@ORDER": "32",
              "@Comments": ""
            },
            {
              "text": "SUDOSTXT",
              "name": "Substance Use Consumption Text",
              "@TYPE": "Char",
              "@LENGTH": "200",
              "@ROLE": "Record Qualifier",
              "@CORE": "Perm",
              "@CONTROLLED": "",
              "description": "",
              "@ORIGIN": "Assigned",
              "@ORDER": "33",
              "@Comments": ""
            },
            {
              "text": "SUDOSU",
              "name": "Consumption Units",
              "@TYPE": "Char",
              "@LENGTH": "20",
              "@ROLE": "Variable Qualifier",
              "@CORE": "Perm",
              "@CONTROLLED": "(UNIT)",
              "description": "",
              "@ORIGIN": "Assigned",
              "@ORDER": "34",
              "@Comments": ""
            },
            {
              "text": "SUDOSFRM",
              "name": "Dose Form",
              "@TYPE": "Char",
              "@LENGTH": "200",
              "@ROLE": "Record Qualifier",
              "@CORE": "Perm",
              "@CONTROLLED": "",
              "description": "",
              "@ORIGIN": "Assigned",
              "@ORDER": "35",
              "@Comments": ""
            },
            {
              "text": "SUDOSFRQ",
              "name": "Use Frequency Per Interval",
              "@TYPE": "Char",
              "@LENGTH": "50",
              "@ROLE": "Variable Qualifier",
              "@CORE": "Perm",
              "@CONTROLLED": "(FREQ)",
              "description": "",
              "@ORIGIN": "Assigned",
              "@ORDER": "36",
              "@Comments": ""
            },
            {
              "text": "SUDOSTOT",
              "name": "Total Daily Consumption",
              "@TYPE": "Num",
              "@LENGTH": "8",
              "@ROLE": "Record Qualifier",
              "@CORE": "Perm",
              "@CONTROLLED": "",
              "description": "",
              "@ORIGIN": "Assigned",
              "@ORDER": "37",
              "@Comments": ""
            },
            {
              "text": "SUROUTE",
              "name": "Route of Administration",
              "@TYPE": "Char",
              "@LENGTH": "50",
              "@ROLE": "Variable Qualifier",
              "@CORE": "Perm",
              "@CONTROLLED": "(ROUTE)",
              "description": "",
              "@ORIGIN": "Assigned",
              "@ORDER": "39",
              "@Comments": ""
            },
            {
              "text": "SUSTDTC",
              "name": "Start Date/Time of Substance Use",
              "@TYPE": "Char",
              "@LENGTH": "20",
              "@ROLE": "Timing",
              "@CORE": "Perm",
              "@CONTROLLED": "ISO 8601",
              "description": "",
              "@ORIGIN": "Assigned",
              "@ORDER": "106",
              "@Comments": ""
            },
            {
              "text": "SUENDTC",
              "name": "End Date/Time of Substance Use",
              "@TYPE": "Char",
              "@LENGTH": "20",
              "@ROLE": "Timing",
              "@CORE": "Perm",
              "@CONTROLLED": "ISO 8601",
              "description": "",
              "@ORIGIN": "Assigned",
              "@ORDER": "107",
              "@Comments": ""
            },
            {
              "text": "SUSTDY",
              "name": "Study Day of Start of Substance Use",
              "@TYPE": "Num",
              "@LENGTH": "8",
              "@ROLE": "Timing",
              "@CORE": "Perm",
              "@CONTROLLED": "",
              "description": "",
              "@ORIGIN": "Derived",
              "@ORDER": "109",
              "@Comments": "Relative study day between <SUSTDTC> and DM.RFSTDTC. Add 1 if the difference is greater than or equal to 0."
            },
            {
              "text": "SUENDY",
              "name": "Study Day of End of Substance Use",
              "@TYPE": "Num",
              "@LENGTH": "8",
              "@ROLE": "Timing",
              "@CORE": "Perm",
              "@CONTROLLED": "",
              "description": "",
              "@ORIGIN": "Derived",
              "@ORDER": "110",
              "@Comments": "Relative study day between <SUENDTC> and DM.RFSTDTC. Add 1 if the difference is greater than or equal to 0."
            },
            {
              "text": "SUDUR",
              "name": "Duration of Substance Use",
              "@TYPE": "Char",
              "@LENGTH": "50",
              "@ROLE": "Timing",
              "@CORE": "Perm",
              "@CONTROLLED": "ISO 8601",
              "description": "",
              "@ORIGIN": "Assigned",
              "@ORDER": "111",
              "@Comments": ""
            },
            {
              "text": "SUSTRF",
              "name": "Start Relative to Reference Period",
              "@TYPE": "Char",
              "@LENGTH": "12",
              "@ROLE": "Timing",
              "@CORE": "Perm",
              "@CONTROLLED": "(STENRF)",
              "description": "",
              "@ORIGIN": "Assigned",
              "@ORDER": "117",
              "@Comments": ""
            },
            {
              "text": "SUENRF",
              "name": "End Relative to Reference Period",
              "@TYPE": "Char",
              "@LENGTH": "12",
              "@ROLE": "Timing",
              "@CORE": "Perm",
              "@CONTROLLED": "(STENRF)",
              "description": "",
              "@ORIGIN": "Assigned",
              "@ORDER": "118",
              "@Comments": ""
            },
            {
              "text": "SUSTRTPT",
              "name": "Start Relative to Reference Time Point",
              "@TYPE": "Char",
              "@LENGTH": "12",
              "@ROLE": "Timing",
              "@CORE": "Perm",
              "@CONTROLLED": "(STENRF)",
              "description": "",
              "@ORIGIN": "Assigned",
              "@ORDER": "120",
              "@Comments": ""
            },
            {
              "text": "SUSTTPT",
              "name": "Start Reference Time Point",
              "@TYPE": "Char",
              "@LENGTH": "200",
              "@ROLE": "Timing",
              "@CORE": "Perm",
              "@CONTROLLED": "",
              "description": "",
              "@ORIGIN": "Assigned",
              "@ORDER": "121",
              "@Comments": ""
            },
            {
              "text": "SUENRTPT",
              "name": "End Relative to Reference Time Point",
              "@TYPE": "Char",
              "@LENGTH": "12",
              "@ROLE": "Timing",
              "@CORE": "Perm",
              "@CONTROLLED": "(STENRF)",
              "description": "",
              "@ORIGIN": "Assigned",
              "@ORDER": "122",
              "@Comments": ""
            },
            {
              "text": "SUENTPT",
              "name": "End Reference Time Point",
              "@TYPE": "Char",
              "@LENGTH": "200",
              "@ROLE": "Timing",
              "@CORE": "Perm",
              "@CONTROLLED": "",
              "description": "",
              "@ORIGIN": "Assigned",
              "@ORDER": "123",
              "@Comments": ""
            }
          ]
        },
        {
          "name": "ML",
          "text": "Meal Data",
          "structure": "One record per subject per meal time",
          "class": "Interventions",
          "description": "",
          "children": [
            {
              "text": "STUDYID",
              "name": "Study Identifier",
              "@TYPE": "Char",
              "@LENGTH": "20",
              "@ROLE": "Identifier",
              "@CORE": "Req",
              "@CONTROLLED": "",
              "description": "",
              "@ORIGIN": "Assigned",
              "@ORDER": "1",
              "@Comments": ""
            },
            {
              "text": "DOMAIN",
              "name": "Domain Abbreviation",
              "@TYPE": "Char",
              "@LENGTH": "2",
              "@ROLE": "Identifier",
              "@CORE": "Req",
              "@CONTROLLED": "",
              "description": "",
              "@ORIGIN": "Assigned",
              "@ORDER": "2",
              "@Comments": ""
            },
            {
              "text": "USUBJID",
              "name": "Unique Subject Identifier",
              "@TYPE": "Char",
              "@LENGTH": "25",
              "@ROLE": "Identifier",
              "@CORE": "Req",
              "@CONTROLLED": "",
              "description": "",
              "@ORIGIN": "Derived",
              "@ORDER": "4",
              "@Comments": "Concatenate STUDYID, SITEID and SUBJID, separated by \"-\"."
            },
            {
              "text": "MLSEQ",
              "name": "Sequence Number",
              "@TYPE": "Num",
              "@LENGTH": "8",
              "@ROLE": "Identifier",
              "@CORE": "Req",
              "@CONTROLLED": "",
              "description": "",
              "@ORIGIN": "Derived",
              "@ORDER": "8",
              "@Comments": "Sort by the key variables specified in the domain list. Assign MLSEQ=1 to the first record and increment MLSEQ by 1 for each additional record so that MLSEQ is unique for each record within a USUBJID."
            },
            {
              "text": "MLTRT",
              "name": "Name of Scheduled Meal",
              "@TYPE": "Char",
              "@LENGTH": "200",
              "@ROLE": "Topic",
              "@CORE": "",
              "@CONTROLLED": "",
              "description": "",
              "@ORIGIN": "Assigned",
              "@ORDER": "20",
              "@Comments": ""
            },
            {
              "text": "MLSTAT",
              "name": "Completion Status",
              "@TYPE": "Char",
              "@LENGTH": "8",
              "@ROLE": "Record Qualifier",
              "@CORE": "",
              "@CONTROLLED": "ND",
              "description": "",
              "@ORIGIN": "Assigned",
              "@ORDER": "27",
              "@Comments": ""
            },
            {
              "text": "MLDOSTXT",
              "name": "Amount of Meal Consumed",
              "@TYPE": "Char",
              "@LENGTH": "200",
              "@ROLE": "Record Qualifier",
              "@CORE": "",
              "@CONTROLLED": "",
              "description": "",
              "@ORIGIN": "Assigned",
              "@ORDER": "33",
              "@Comments": ""
            },
            {
              "text": "VISITNUM",
              "name": "Visit Number",
              "@TYPE": "Num",
              "@LENGTH": "8",
              "@ROLE": "Timing",
              "@CORE": "",
              "@CONTROLLED": "",
              "description": "",
              "@ORIGIN": "Assigned",
              "@ORDER": "100",
              "@Comments": ""
            },
            {
              "text": "VISIT",
              "name": "Visit Name",
              "@TYPE": "Char",
              "@LENGTH": "200",
              "@ROLE": "Timing",
              "@CORE": "",
              "@CONTROLLED": "",
              "description": "",
              "@ORIGIN": "Assigned",
              "@ORDER": "101",
              "@Comments": ""
            },
            {
              "text": "VISITDY",
              "name": "Planned Study Day of Visit",
              "@TYPE": "Num",
              "@LENGTH": "8",
              "@ROLE": "Timing",
              "@CORE": "",
              "@CONTROLLED": "",
              "description": "",
              "@ORIGIN": "Protocol",
              "@ORDER": "102",
              "@Comments": ""
            },
            {
              "text": "MLSTDTC",
              "name": "Start Date/Time of the Meal",
              "@TYPE": "Char",
              "@LENGTH": "20",
              "@ROLE": "Timing",
              "@CORE": "",
              "@CONTROLLED": "",
              "description": "",
              "@ORIGIN": "Assigned",
              "@ORDER": "106",
              "@Comments": ""
            },
            {
              "text": "MLENDTC",
              "name": "End Date/Time of the Meal",
              "@TYPE": "Char",
              "@LENGTH": "20",
              "@ROLE": "Timing",
              "@CORE": "",
              "@CONTROLLED": "",
              "description": "",
              "@ORIGIN": "Assigned",
              "@ORDER": "107",
              "@Comments": ""
            },
            {
              "text": "MLSTDY",
              "name": "Study Day of Start of Meal",
              "@TYPE": "Num",
              "@LENGTH": "8",
              "@ROLE": "Timing",
              "@CORE": "",
              "@CONTROLLED": "",
              "description": "",
              "@ORIGIN": "Derived",
              "@ORDER": "109",
              "@Comments": "Relative study day between <MLSTDTC> and DM.RFSTDTC. Add 1 if the difference is greater than or equal to 0."
            },
            {
              "text": "MLENDY",
              "name": "Study Day of End of Meal",
              "@TYPE": "Num",
              "@LENGTH": "8",
              "@ROLE": "Timing",
              "@CORE": "",
              "@CONTROLLED": "",
              "description": "",
              "@ORIGIN": "Derived",
              "@ORDER": "110",
              "@Comments": "Relative study day between <MLENDTC> and DM.RFSTDTC. Add 1 if the difference is greater than or equal to 0."
            }
          ]
        },
        {
          "name": "AE",
          "text": "Adverse Events",
          "structure": "One record per adverse event per subject",
          "class": "Events",
          "description": "",
          "children": [
            {
              "text": "STUDYID",
              "name": "Study Identifier",
              "@TYPE": "Char",
              "@LENGTH": "20",
              "@ROLE": "Identifier",
              "@CORE": "Req",
              "@CONTROLLED": "",
              "description": "",
              "@ORIGIN": "Assigned",
              "@ORDER": "1",
              "@Comments": ""
            },
            {
              "text": "DOMAIN",
              "name": "Domain Abbreviation",
              "@TYPE": "Char",
              "@LENGTH": "2",
              "@ROLE": "Identifier",
              "@CORE": "Req",
              "@CONTROLLED": "",
              "description": "",
              "@ORIGIN": "Assigned",
              "@ORDER": "2",
              "@Comments": ""
            },
            {
              "text": "USUBJID",
              "name": "Unique Subject Identifier",
              "@TYPE": "Char",
              "@LENGTH": "25",
              "@ROLE": "Identifier",
              "@CORE": "Req",
              "@CONTROLLED": "",
              "description": "",
              "@ORIGIN": "Derived",
              "@ORDER": "4",
              "@Comments": "Concatenate STUDYID, SITEID and SUBJID, separated by \"-\"."
            },
            {
              "text": "AESEQ",
              "name": "Sequence Number",
              "@TYPE": "Num",
              "@LENGTH": "8",
              "@ROLE": "Identifier",
              "@CORE": "Req",
              "@CONTROLLED": "",
              "description": "",
              "@ORIGIN": "Derived",
              "@ORDER": "8",
              "@Comments": "Sort by the key variables specified in the domain list. Assign AESEQ=1 to the first record and increment AESEQ by 1 for each additional record so that AESEQ is unique for each record within a USUBJID."
            },
            {
              "text": "AEGRPID",
              "name": "Group ID",
              "@TYPE": "Char",
              "@LENGTH": "20",
              "@ROLE": "Identifier",
              "@CORE": "Perm",
              "@CONTROLLED": "",
              "description": "",
              "@ORIGIN": "Assigned",
              "@ORDER": "9",
              "@Comments": ""
            },
            {
              "text": "AEREFID",
              "name": "Reference ID",
              "@TYPE": "Char",
              "@LENGTH": "20",
              "@ROLE": "Identifier",
              "@CORE": "Perm",
              "@CONTROLLED": "",
              "description": "",
              "@ORIGIN": "Assigned",
              "@ORDER": "10",
              "@Comments": ""
            },
            {
              "text": "AESPID",
              "name": "Sponsor-Defined Identifier",
              "@TYPE": "Char",
              "@LENGTH": "20",
              "@ROLE": "Identifier",
              "@CORE": "Perm",
              "@CONTROLLED": "",
              "description": "",
              "@ORIGIN": "Assigned",
              "@ORDER": "11",
              "@Comments": ""
            },
            {
              "text": "AETERM",
              "name": "Reported Term for the Adverse Event",
              "@TYPE": "Char",
              "@LENGTH": "200",
              "@ROLE": "Topic",
              "@CORE": "Req",
              "@CONTROLLED": "",
              "description": "",
              "@ORIGIN": "Assigned",
              "@ORDER": "20",
              "@Comments": ""
            },
            {
              "text": "AEMODIFY",
              "name": "Modified Reported Term",
              "@TYPE": "Char",
              "@LENGTH": "200",
              "@ROLE": "Synonym Qualifier",
              "@CORE": "Perm",
              "@CONTROLLED": "",
              "description": "",
              "@ORIGIN": "Assigned",
              "@ORDER": "21",
              "@Comments": ""
            },
            {
              "text": "AELLT",
              "name": "Lowest Level Term",
              "@TYPE": "Char",
              "@LENGTH": "200",
              "@ROLE": "Variable Qualifier",
              "@CORE": "Exp",
              "@CONTROLLED": "",
              "description": "",
              "@ORIGIN": "Assigned",
              "@ORDER": "22",
              "@Comments": "MedDRA version 13.1"
            },
            {
              "text": "AELLTCD",
              "name": "Lowest Level Term Code",
              "@TYPE": "Num",
              "@LENGTH": "8",
              "@ROLE": "Variable Qualifier",
              "@CORE": "Exp",
              "@CONTROLLED": "",
              "description": "",
              "@ORIGIN": "Assigned",
              "@ORDER": "23",
              "@Comments": "MedDRA version 13.1"
            },
            {
              "text": "AEDECOD",
              "name": "Dictionary-Derived Term",
              "@TYPE": "Char",
              "@LENGTH": "200",
              "@ROLE": "Synonym Qualifier",
              "@CORE": "Req",
              "@CONTROLLED": "(EVENDICT)",
              "description": "",
              "@ORIGIN": "Assigned",
              "@ORDER": "24",
              "@Comments": "MedDRA version 13.1"
            },
            {
              "text": "AEPTCD",
              "name": "Preferred Term Code",
              "@TYPE": "Num",
              "@LENGTH": "8",
              "@ROLE": "Variable Qualifier",
              "@CORE": "Exp",
              "@CONTROLLED": "",
              "description": "",
              "@ORIGIN": "Assigned",
              "@ORDER": "25",
              "@Comments": "MedDRA version 13.1"
            },
            {
              "text": "AEHLT",
              "name": "High Level Term",
              "@TYPE": "Char",
              "@LENGTH": "200",
              "@ROLE": "Variable Qualifier",
              "@CORE": "Exp",
              "@CONTROLLED": "",
              "description": "",
              "@ORIGIN": "Assigned",
              "@ORDER": "26",
              "@Comments": "MedDRA version 13.1"
            },
            {
              "text": "AEHLTCD",
              "name": "High Level Term Code",
              "@TYPE": "Num",
              "@LENGTH": "8",
              "@ROLE": "Variable Qualifier",
              "@CORE": "Exp",
              "@CONTROLLED": "",
              "description": "",
              "@ORIGIN": "Assigned",
              "@ORDER": "27",
              "@Comments": "MedDRA version 13.1"
            },
            {
              "text": "AEHLGT",
              "name": "High Level Group Term",
              "@TYPE": "Char",
              "@LENGTH": "200",
              "@ROLE": "Variable Qualifier",
              "@CORE": "Exp",
              "@CONTROLLED": "",
              "description": "",
              "@ORIGIN": "Assigned",
              "@ORDER": "28",
              "@Comments": "MedDRA version 13.1"
            },
            {
              "text": "AEHLGTCD",
              "name": "High Level Group Term Code",
              "@TYPE": "Num",
              "@LENGTH": "8",
              "@ROLE": "Variable Qualifier",
              "@CORE": "Exp",
              "@CONTROLLED": "",
              "description": "",
              "@ORIGIN": "Assigned",
              "@ORDER": "29",
              "@Comments": "MedDRA version 13.1"
            },
            {
              "text": "AECAT",
              "name": "Category for Adverse Event",
              "@TYPE": "Char",
              "@LENGTH": "200",
              "@ROLE": "Grouping Qualifier",
              "@CORE": "Perm",
              "@CONTROLLED": "",
              "description": "",
              "@ORIGIN": "Assigned",
              "@ORDER": "30",
              "@Comments": ""
            },
            {
              "text": "AESCAT",
              "name": "Subcategory for Adverse Event",
              "@TYPE": "Char",
              "@LENGTH": "200",
              "@ROLE": "Grouping Qualifier",
              "@CORE": "Perm",
              "@CONTROLLED": "",
              "description": "",
              "@ORIGIN": "Assigned",
              "@ORDER": "31",
              "@Comments": ""
            },
            {
              "text": "AEPRESP",
              "name": "Pre-Specified Adverse Event",
              "@TYPE": "Char",
              "@LENGTH": "1",
              "@ROLE": "Record Qualifier",
              "@CORE": "Perm",
              "@CONTROLLED": "(NY)",
              "description": "",
              "@ORIGIN": "Assigned",
              "@ORDER": "32",
              "@Comments": ""
            },
            {
              "text": "AEBODSYS",
              "name": "Body System or Organ Class",
              "@TYPE": "Char",
              "@LENGTH": "200",
              "@ROLE": "Record Qualifier",
              "@CORE": "Exp",
              "@CONTROLLED": "",
              "description": "",
              "@ORIGIN": "Assigned",
              "@ORDER": "36",
              "@Comments": "MedDRA version 13.1"
            },
            {
              "text": "AEBDSYCD",
              "name": "Body System or Organ Class Code",
              "@TYPE": "Num",
              "@LENGTH": "8",
              "@ROLE": "Variable Qualifier",
              "@CORE": "Exp",
              "@CONTROLLED": "",
              "description": "",
              "@ORIGIN": "Assigned",
              "@ORDER": "37",
              "@Comments": "MedDRA version 13.1"
            },
            {
              "text": "AESOC",
              "name": "Primary System Organ Class",
              "@TYPE": "Char",
              "@LENGTH": "200",
              "@ROLE": "Variable Qualifier",
              "@CORE": "Exp",
              "@CONTROLLED": "",
              "description": "",
              "@ORIGIN": "Assigned",
              "@ORDER": "38",
              "@Comments": "MedDRA version 13.1"
            },
            {
              "text": "AESOCCD",
              "name": "Primary System Organ Class Code",
              "@TYPE": "Num",
              "@LENGTH": "8",
              "@ROLE": "Variable Qualifier",
              "@CORE": "Exp",
              "@CONTROLLED": "",
              "description": "",
              "@ORIGIN": "Assigned",
              "@ORDER": "39",
              "@Comments": "MedDRA version 13.1"
            },
            {
              "text": "AELOC",
              "name": "Location of Event",
              "@TYPE": "Char",
              "@LENGTH": "200",
              "@ROLE": "Record Qualifier",
              "@CORE": "Perm",
              "@CONTROLLED": "(LOC)",
              "description": "",
              "@ORIGIN": "Assigned",
              "@ORDER": "40",
              "@Comments": ""
            },
            {
              "text": "AESEV",
              "name": "Severity/Intensity",
              "@TYPE": "Char",
              "@LENGTH": "8",
              "@ROLE": "Record Qualifier",
              "@CORE": "Perm",
              "@CONTROLLED": "(AESEV)",
              "description": "",
              "@ORIGIN": "Assigned",
              "@ORDER": "41",
              "@Comments": ""
            },
            {
              "text": "AESER",
              "name": "Serious Event",
              "@TYPE": "Char",
              "@LENGTH": "1",
              "@ROLE": "Record Qualifier",
              "@CORE": "Exp",
              "@CONTROLLED": "(NY)",
              "description": "",
              "@ORIGIN": "Assigned",
              "@ORDER": "42",
              "@Comments": ""
            },
            {
              "text": "AEACN",
              "name": "Action Taken with Study Treatment",
              "@TYPE": "Char",
              "@LENGTH": "200",
              "@ROLE": "Record Qualifier",
              "@CORE": "Exp",
              "@CONTROLLED": "(ACN)",
              "description": "",
              "@ORIGIN": "Assigned",
              "@ORDER": "43",
              "@Comments": ""
            },
            {
              "text": "AEACNOTH",
              "name": "Other Action Taken",
              "@TYPE": "Char",
              "@LENGTH": "200",
              "@ROLE": "Record Qualifier",
              "@CORE": "Perm",
              "@CONTROLLED": "",
              "description": "",
              "@ORIGIN": "Assigned",
              "@ORDER": "44",
              "@Comments": ""
            },
            {
              "text": "AEREL",
              "name": "Causality",
              "@TYPE": "Char",
              "@LENGTH": "50",
              "@ROLE": "Record Qualifier",
              "@CORE": "Exp",
              "@CONTROLLED": "",
              "description": "",
              "@ORIGIN": "Assigned",
              "@ORDER": "45",
              "@Comments": ""
            },
            {
              "text": "AERELNST",
              "name": "Relationship to Non-Study Treatment",
              "@TYPE": "Char",
              "@LENGTH": "200",
              "@ROLE": "Record Qualifier",
              "@CORE": "Perm",
              "@CONTROLLED": "",
              "description": "",
              "@ORIGIN": "Assigned",
              "@ORDER": "46",
              "@Comments": ""
            },
            {
              "text": "AEPATT",
              "name": "Pattern of Adverse Event",
              "@TYPE": "Char",
              "@LENGTH": "50",
              "@ROLE": "Record Qualifier",
              "@CORE": "Perm",
              "@CONTROLLED": "",
              "description": "",
              "@ORIGIN": "Assigned",
              "@ORDER": "47",
              "@Comments": ""
            },
            {
              "text": "AEOUT",
              "name": "Outcome of Adverse Event",
              "@TYPE": "Char",
              "@LENGTH": "200",
              "@ROLE": "Record Qualifier",
              "@CORE": "Perm",
              "@CONTROLLED": "(OUT)",
              "description": "",
              "@ORIGIN": "Assigned",
              "@ORDER": "48",
              "@Comments": ""
            },
            {
              "text": "AESCAN",
              "name": "Involves Cancer",
              "@TYPE": "Char",
              "@LENGTH": "1",
              "@ROLE": "Record Qualifier",
              "@CORE": "Perm",
              "@CONTROLLED": "(NY)",
              "description": "",
              "@ORIGIN": "Assigned",
              "@ORDER": "49",
              "@Comments": ""
            },
            {
              "text": "AESCONG",
              "name": "Congenital Anomaly or Birth Defect",
              "@TYPE": "Char",
              "@LENGTH": "1",
              "@ROLE": "Record Qualifier",
              "@CORE": "Perm",
              "@CONTROLLED": "(NY)",
              "description": "",
              "@ORIGIN": "Assigned",
              "@ORDER": "50",
              "@Comments": ""
            },
            {
              "text": "AESDISAB",
              "name": "Persist or Signif Disability/Incapacity",
              "@TYPE": "Char",
              "@LENGTH": "1",
              "@ROLE": "Record Qualifier",
              "@CORE": "Perm",
              "@CONTROLLED": "(NY)",
              "description": "",
              "@ORIGIN": "Assigned",
              "@ORDER": "51",
              "@Comments": ""
            },
            {
              "text": "AESDTH",
              "name": "Results in Death",
              "@TYPE": "Char",
              "@LENGTH": "1",
              "@ROLE": "Record Qualifier",
              "@CORE": "Perm",
              "@CONTROLLED": "(NY)",
              "description": "",
              "@ORIGIN": "Assigned",
              "@ORDER": "52",
              "@Comments": ""
            },
            {
              "text": "AESHOSP",
              "name": "Requires or Prolongs Hospitalization",
              "@TYPE": "Char",
              "@LENGTH": "1",
              "@ROLE": "Record Qualifier",
              "@CORE": "Perm",
              "@CONTROLLED": "(NY)",
              "description": "",
              "@ORIGIN": "Assigned",
              "@ORDER": "53",
              "@Comments": ""
            },
            {
              "text": "AESLIFE",
              "name": "Is Life Threatening",
              "@TYPE": "Char",
              "@LENGTH": "1",
              "@ROLE": "Record Qualifier",
              "@CORE": "Perm",
              "@CONTROLLED": "(NY)",
              "description": "",
              "@ORIGIN": "Assigned",
              "@ORDER": "54",
              "@Comments": ""
            },
            {
              "text": "AESOD",
              "name": "Occurred with Overdose",
              "@TYPE": "Char",
              "@LENGTH": "1",
              "@ROLE": "Record Qualifier",
              "@CORE": "Perm",
              "@CONTROLLED": "(NY)",
              "description": "",
              "@ORIGIN": "Assigned",
              "@ORDER": "55",
              "@Comments": ""
            },
            {
              "text": "AESMIE",
              "name": "Other Medically Important Serious Event",
              "@TYPE": "Char",
              "@LENGTH": "1",
              "@ROLE": "Record Qualifier",
              "@CORE": "Perm",
              "@CONTROLLED": "(NY)",
              "description": "",
              "@ORIGIN": "Assigned",
              "@ORDER": "56",
              "@Comments": ""
            },
            {
              "text": "AECONTRT",
              "name": "Concomitant or Additional Trtmnt Given",
              "@TYPE": "Char",
              "@LENGTH": "1",
              "@ROLE": "Record Qualifier",
              "@CORE": "Perm",
              "@CONTROLLED": "(NY)",
              "description": "",
              "@ORIGIN": "Assigned",
              "@ORDER": "57",
              "@Comments": ""
            },
            {
              "text": "AETOXGR",
              "name": "Standard Toxicity Grade",
              "@TYPE": "Char",
              "@LENGTH": "1",
              "@ROLE": "Record Qualifier",
              "@CORE": "Perm",
              "@CONTROLLED": "",
              "description": "",
              "@ORIGIN": "Assigned",
              "@ORDER": "59",
              "@Comments": ""
            },
            {
              "text": "AESTDTC",
              "name": "Start Date/Time of Adverse Event",
              "@TYPE": "Char",
              "@LENGTH": "20",
              "@ROLE": "Timing",
              "@CORE": "Exp",
              "@CONTROLLED": "ISO 8601",
              "description": "",
              "@ORIGIN": "Assigned",
              "@ORDER": "106",
              "@Comments": ""
            },
            {
              "text": "AEENDTC",
              "name": "End Date/Time of Adverse Event",
              "@TYPE": "Char",
              "@LENGTH": "20",
              "@ROLE": "Timing",
              "@CORE": "Exp",
              "@CONTROLLED": "ISO 8601",
              "description": "",
              "@ORIGIN": "Assigned",
              "@ORDER": "107",
              "@Comments": ""
            },
            {
              "text": "AESTDY",
              "name": "Study Day of Start of Adverse Event",
              "@TYPE": "Num",
              "@LENGTH": "8",
              "@ROLE": "Timing",
              "@CORE": "Perm",
              "@CONTROLLED": "",
              "description": "",
              "@ORIGIN": "Derived",
              "@ORDER": "109",
              "@Comments": "Relative study day between <AESTDTC> and DM.RFSTDTC. Add 1 if the difference is greater than or equal to 0."
            },
            {
              "text": "AEENDY",
              "name": "Study Day of End of Adverse Event",
              "@TYPE": "Num",
              "@LENGTH": "8",
              "@ROLE": "Timing",
              "@CORE": "Perm",
              "@CONTROLLED": "",
              "description": "",
              "@ORIGIN": "Derived",
              "@ORDER": "110",
              "@Comments": "Relative study day between <AEENDTC> and DM.RFSTDTC. Add 1 if the difference is greater than or equal to 0."
            },
            {
              "text": "AEDUR",
              "name": "Duration of Adverse Event",
              "@TYPE": "Char",
              "@LENGTH": "50",
              "@ROLE": "Timing",
              "@CORE": "Perm",
              "@CONTROLLED": "ISO 8601",
              "description": "",
              "@ORIGIN": "Assigned",
              "@ORDER": "111",
              "@Comments": ""
            },
            {
              "text": "AEENRF",
              "name": "End Relative to Reference Period",
              "@TYPE": "Char",
              "@LENGTH": "12",
              "@ROLE": "Timing",
              "@CORE": "Perm",
              "@CONTROLLED": "(STENRF)",
              "description": "",
              "@ORIGIN": "Assigned",
              "@ORDER": "118",
              "@Comments": ""
            },
            {
              "text": "AEENRTPT",
              "name": "End Relative to Reference Time Point",
              "@TYPE": "Char",
              "@LENGTH": "12",
              "@ROLE": "Timing",
              "@CORE": "Perm",
              "@CONTROLLED": "(STENRF)",
              "description": "",
              "@ORIGIN": "Assigned",
              "@ORDER": "122",
              "@Comments": ""
            },
            {
              "text": "AEENTPT",
              "name": "End Reference Time Point",
              "@TYPE": "Char",
              "@LENGTH": "200",
              "@ROLE": "Timing",
              "@CORE": "Perm",
              "@CONTROLLED": "",
              "description": "",
              "@ORIGIN": "Assigned",
              "@ORDER": "123",
              "@Comments": ""
            }
          ]
        },
        {
          "name": "DS",
          "text": "Disposition",
          "structure": "One record per disposition status or protocol milestone per subject",
          "class": "Events",
          "description": "",
          "children": [
            {
              "text": "STUDYID",
              "name": "Study Identifier",
              "@TYPE": "Char",
              "@LENGTH": "20",
              "@ROLE": "Identifier",
              "@CORE": "Req",
              "@CONTROLLED": "",
              "description": "",
              "@ORIGIN": "Assigned",
              "@ORDER": "1",
              "@Comments": ""
            },
            {
              "text": "DOMAIN",
              "name": "Domain Abbreviation",
              "@TYPE": "Char",
              "@LENGTH": "2",
              "@ROLE": "Identifier",
              "@CORE": "Req",
              "@CONTROLLED": "",
              "description": "",
              "@ORIGIN": "Assigned",
              "@ORDER": "2",
              "@Comments": ""
            },
            {
              "text": "USUBJID",
              "name": "Unique Subject Identifier",
              "@TYPE": "Char",
              "@LENGTH": "25",
              "@ROLE": "Identifier",
              "@CORE": "Req",
              "@CONTROLLED": "",
              "description": "",
              "@ORIGIN": "Derived",
              "@ORDER": "4",
              "@Comments": "Concatenate STUDYID, SITEID and SUBJID, separated by \"-\"."
            },
            {
              "text": "DSSEQ",
              "name": "Sequence Number",
              "@TYPE": "Num",
              "@LENGTH": "8",
              "@ROLE": "Identifier",
              "@CORE": "Req",
              "@CONTROLLED": "",
              "description": "",
              "@ORIGIN": "Derived",
              "@ORDER": "8",
              "@Comments": "Sort by the key variables specified in the domain list. Assign DSSEQ=1 to the first record and increment DSSEQ by 1 for each additional record so that DSSEQ is unique for each record within a USUBJID."
            },
            {
              "text": "DSGRPID",
              "name": "Group ID",
              "@TYPE": "Char",
              "@LENGTH": "20",
              "@ROLE": "Identifier",
              "@CORE": "Perm",
              "@CONTROLLED": "",
              "description": "",
              "@ORIGIN": "Assigned",
              "@ORDER": "9",
              "@Comments": ""
            },
            {
              "text": "DSREFID",
              "name": "Reference ID",
              "@TYPE": "Char",
              "@LENGTH": "20",
              "@ROLE": "Identifier",
              "@CORE": "Perm",
              "@CONTROLLED": "",
              "description": "",
              "@ORIGIN": "Assigned",
              "@ORDER": "10",
              "@Comments": ""
            },
            {
              "text": "DSSPID",
              "name": "Sponsor-Defined Identifier",
              "@TYPE": "Char",
              "@LENGTH": "20",
              "@ROLE": "Identifier",
              "@CORE": "Perm",
              "@CONTROLLED": "",
              "description": "",
              "@ORIGIN": "Assigned",
              "@ORDER": "11",
              "@Comments": ""
            },
            {
              "text": "DSTERM",
              "name": "Reported Term for the Disposition Event",
              "@TYPE": "Char",
              "@LENGTH": "200",
              "@ROLE": "Topic",
              "@CORE": "Req",
              "@CONTROLLED": "",
              "description": "",
              "@ORIGIN": "Assigned",
              "@ORDER": "20",
              "@Comments": ""
            },
            {
              "text": "DSDECOD",
              "name": "Standardized Disposition Term",
              "@TYPE": "Char",
              "@LENGTH": "200",
              "@ROLE": "Synonym Qualifier",
              "@CORE": "Req",
              "@CONTROLLED": "(NCOMPLT)",
              "description": "",
              "@ORIGIN": "Assigned",
              "@ORDER": "24",
              "@Comments": ""
            },
            {
              "text": "DSCAT",
              "name": "Category for Disposition Event",
              "@TYPE": "Char",
              "@LENGTH": "200",
              "@ROLE": "Grouping Qualifier",
              "@CORE": "Exp",
              "@CONTROLLED": "(DSCAT)",
              "description": "",
              "@ORIGIN": "Assigned",
              "@ORDER": "30",
              "@Comments": ""
            },
            {
              "text": "DSSCAT",
              "name": "Subcategory for Disposition Event",
              "@TYPE": "Char",
              "@LENGTH": "200",
              "@ROLE": "Grouping Qualifier",
              "@CORE": "Perm",
              "@CONTROLLED": "",
              "description": "",
              "@ORIGIN": "Assigned",
              "@ORDER": "31",
              "@Comments": ""
            },
            {
              "text": "EPOCH",
              "name": "Epoch",
              "@TYPE": "Char",
              "@LENGTH": "50",
              "@ROLE": "Timing",
              "@CORE": "Perm",
              "@CONTROLLED": "",
              "description": "",
              "@ORIGIN": "Assigned",
              "@ORDER": "104",
              "@Comments": ""
            },
            {
              "text": "DSDTC",
              "name": "Date/Time of Collection",
              "@TYPE": "Char",
              "@LENGTH": "20",
              "@ROLE": "Timing",
              "@CORE": "Perm",
              "@CONTROLLED": "ISO 8601",
              "description": "",
              "@ORIGIN": "Assigned",
              "@ORDER": "105",
              "@Comments": ""
            },
            {
              "text": "DSSTDTC",
              "name": "Start Date/Time of Disposition Event",
              "@TYPE": "Char",
              "@LENGTH": "20",
              "@ROLE": "Timing",
              "@CORE": "Exp",
              "@CONTROLLED": "ISO 8601",
              "description": "",
              "@ORIGIN": "Assigned",
              "@ORDER": "106",
              "@Comments": ""
            },
            {
              "text": "DSDY",
              "name": "Study Day of Visit/Collection/Exam",
              "@TYPE": "Num",
              "@LENGTH": "8",
              "@ROLE": "Timing",
              "@CORE": "Perm",
              "@CONTROLLED": "",
              "description": "",
              "@ORIGIN": "Derived",
              "@ORDER": "108",
              "@Comments": "Relative study day between <DSDTC> and DM.RFSTDTC. Add 1 if the difference is greater than or equal to 0."
            },
            {
              "text": "DSSTDY",
              "name": "Study Day of Start of Disposition Event",
              "@TYPE": "Num",
              "@LENGTH": "8",
              "@ROLE": "Timing",
              "@CORE": "Perm",
              "@CONTROLLED": "",
              "description": "",
              "@ORIGIN": "Derived",
              "@ORDER": "109",
              "@Comments": "Relative study day between <DSSTDTC> and DM.RFSTDTC. Add 1 if the difference is greater than or equal to 0."
            }
          ]
        },
        {
          "name": "MH",
          "text": "Medical History",
          "structure": "One record per medical history event per subject",
          "class": "Events",
          "description": "",
          "children": [
            {
              "text": "STUDYID",
              "name": "Study Identifier",
              "@TYPE": "Char",
              "@LENGTH": "20",
              "@ROLE": "Identifier",
              "@CORE": "Req",
              "@CONTROLLED": "",
              "description": "",
              "@ORIGIN": "Assigned",
              "@ORDER": "1",
              "@Comments": ""
            },
            {
              "text": "DOMAIN",
              "name": "Domain Abbreviation",
              "@TYPE": "Char",
              "@LENGTH": "2",
              "@ROLE": "Identifier",
              "@CORE": "Req",
              "@CONTROLLED": "",
              "description": "",
              "@ORIGIN": "Assigned",
              "@ORDER": "2",
              "@Comments": ""
            },
            {
              "text": "USUBJID",
              "name": "Unique Subject Identifier",
              "@TYPE": "Char",
              "@LENGTH": "25",
              "@ROLE": "Identifier",
              "@CORE": "Req",
              "@CONTROLLED": "",
              "description": "",
              "@ORIGIN": "Derived",
              "@ORDER": "4",
              "@Comments": "Concatenate STUDYID, SITEID and SUBJID, separated by \"-\"."
            },
            {
              "text": "MHSEQ",
              "name": "Sequence Number",
              "@TYPE": "Num",
              "@LENGTH": "8",
              "@ROLE": "Identifier",
              "@CORE": "Req",
              "@CONTROLLED": "",
              "description": "",
              "@ORIGIN": "Derived",
              "@ORDER": "8",
              "@Comments": "Sort by the key variables specified in the domain list. Assign MHSEQ=1 to the first record and increment MHSEQ by 1 for each additional record so that MHSEQ is unique for each record within a USUBJID."
            },
            {
              "text": "MHGRPID",
              "name": "Group ID",
              "@TYPE": "Char",
              "@LENGTH": "20",
              "@ROLE": "Identifier",
              "@CORE": "Perm",
              "@CONTROLLED": "",
              "description": "",
              "@ORIGIN": "Assigned",
              "@ORDER": "9",
              "@Comments": ""
            },
            {
              "text": "MHREFID",
              "name": "Reference ID",
              "@TYPE": "Char",
              "@LENGTH": "20",
              "@ROLE": "Identifier",
              "@CORE": "Perm",
              "@CONTROLLED": "",
              "description": "",
              "@ORIGIN": "Assigned",
              "@ORDER": "10",
              "@Comments": ""
            },
            {
              "text": "MHSPID",
              "name": "Sponsor-Defined Identifier",
              "@TYPE": "Char",
              "@LENGTH": "20",
              "@ROLE": "Identifier",
              "@CORE": "Perm",
              "@CONTROLLED": "",
              "description": "",
              "@ORIGIN": "Assigned",
              "@ORDER": "11",
              "@Comments": ""
            },
            {
              "text": "MHTERM",
              "name": "Reported Term for the Medical History",
              "@TYPE": "Char",
              "@LENGTH": "200",
              "@ROLE": "Topic",
              "@CORE": "Req",
              "@CONTROLLED": "",
              "description": "",
              "@ORIGIN": "Assigned",
              "@ORDER": "20",
              "@Comments": ""
            },
            {
              "text": "MHMODIFY",
              "name": "Modified Reported Term",
              "@TYPE": "Char",
              "@LENGTH": "200",
              "@ROLE": "Synonym Qualifier",
              "@CORE": "Perm",
              "@CONTROLLED": "",
              "description": "",
              "@ORIGIN": "Assigned",
              "@ORDER": "21",
              "@Comments": ""
            },
            {
              "text": "MHLLT",
              "name": "Lowest Level Term",
              "@TYPE": "Char",
              "@LENGTH": "200",
              "@ROLE": "Variable Qualifier",
              "@CORE": "Perm",
              "@CONTROLLED": "",
              "description": "",
              "@ORIGIN": "Assigned",
              "@ORDER": "22",
              "@Comments": "MedDRA version 13.1"
            },
            {
              "text": "MHLLTCD",
              "name": "Lowest Level Term Code",
              "@TYPE": "Num",
              "@LENGTH": "8",
              "@ROLE": "Variable Qualifier",
              "@CORE": "Perm",
              "@CONTROLLED": "",
              "description": "",
              "@ORIGIN": "Assigned",
              "@ORDER": "23",
              "@Comments": "MedDRA version 13.1"
            },
            {
              "text": "MHDECOD",
              "name": "Dictionary-Derived Term",
              "@TYPE": "Char",
              "@LENGTH": "200",
              "@ROLE": "Synonym Qualifier",
              "@CORE": "Perm",
              "@CONTROLLED": "",
              "description": "",
              "@ORIGIN": "Assigned",
              "@ORDER": "24",
              "@Comments": "MedDRA version 13.1"
            },
            {
              "text": "MHPTCD",
              "name": "Preferred Term Code",
              "@TYPE": "Num",
              "@LENGTH": "8",
              "@ROLE": "Variable Qualifier",
              "@CORE": "Perm",
              "@CONTROLLED": "",
              "description": "",
              "@ORIGIN": "Assigned",
              "@ORDER": "25",
              "@Comments": "MedDRA version 13.1"
            },
            {
              "text": "MHHLT",
              "name": "High Level Term",
              "@TYPE": "Char",
              "@LENGTH": "200",
              "@ROLE": "Variable Qualifier",
              "@CORE": "Perm",
              "@CONTROLLED": "",
              "description": "",
              "@ORIGIN": "Assigned",
              "@ORDER": "26",
              "@Comments": "MedDRA version 13.1"
            },
            {
              "text": "MHHLTCD",
              "name": "High Level Term Code",
              "@TYPE": "Num",
              "@LENGTH": "8",
              "@ROLE": "Variable Qualifier",
              "@CORE": "Perm",
              "@CONTROLLED": "",
              "description": "",
              "@ORIGIN": "Assigned",
              "@ORDER": "27",
              "@Comments": "MedDRA version 13.1"
            },
            {
              "text": "MHHLGT",
              "name": "High Level Group Term",
              "@TYPE": "Char",
              "@LENGTH": "200",
              "@ROLE": "Variable Qualifier",
              "@CORE": "Perm",
              "@CONTROLLED": "",
              "description": "",
              "@ORIGIN": "Assigned",
              "@ORDER": "28",
              "@Comments": "MedDRA version 13.1"
            },
            {
              "text": "MHHLGTCD",
              "name": "High Level Group Term Code",
              "@TYPE": "Num",
              "@LENGTH": "8",
              "@ROLE": "Variable Qualifier",
              "@CORE": "Perm",
              "@CONTROLLED": "",
              "description": "",
              "@ORIGIN": "Assigned",
              "@ORDER": "29",
              "@Comments": "MedDRA version 13.1"
            },
            {
              "text": "MHCAT",
              "name": "Category for Medical History",
              "@TYPE": "Char",
              "@LENGTH": "200",
              "@ROLE": "Grouping Qualifier",
              "@CORE": "Perm",
              "@CONTROLLED": "",
              "description": "",
              "@ORIGIN": "Assigned",
              "@ORDER": "30",
              "@Comments": ""
            },
            {
              "text": "MHSCAT",
              "name": "Subcategory for Medical History",
              "@TYPE": "Char",
              "@LENGTH": "200",
              "@ROLE": "Grouping Qualifier",
              "@CORE": "Perm",
              "@CONTROLLED": "",
              "description": "",
              "@ORIGIN": "Assigned",
              "@ORDER": "31",
              "@Comments": ""
            },
            {
              "text": "MHPRESP",
              "name": "Medical History Event Pre-Specified",
              "@TYPE": "Char",
              "@LENGTH": "1",
              "@ROLE": "Record Qualifier",
              "@CORE": "Perm",
              "@CONTROLLED": "(NY)",
              "description": "",
              "@ORIGIN": "Assigned",
              "@ORDER": "32",
              "@Comments": ""
            },
            {
              "text": "MHOCCUR",
              "name": "Medical History Occurrence",
              "@TYPE": "Char",
              "@LENGTH": "1",
              "@ROLE": "Record Qualifier",
              "@CORE": "Perm",
              "@CONTROLLED": "(NY)",
              "description": "",
              "@ORIGIN": "Assigned",
              "@ORDER": "33",
              "@Comments": ""
            },
            {
              "text": "MHSTAT",
              "name": "Completion Status",
              "@TYPE": "Char",
              "@LENGTH": "8",
              "@ROLE": "Record Qualifier",
              "@CORE": "Perm",
              "@CONTROLLED": "(ND)",
              "description": "",
              "@ORIGIN": "Assigned",
              "@ORDER": "34",
              "@Comments": ""
            },
            {
              "text": "MHREASND",
              "name": "Reason Medical History Not Collected",
              "@TYPE": "Char",
              "@LENGTH": "200",
              "@ROLE": "Record Qualifier",
              "@CORE": "Perm",
              "@CONTROLLED": "",
              "description": "",
              "@ORIGIN": "Assigned",
              "@ORDER": "35",
              "@Comments": ""
            },
            {
              "text": "MHBODSYS",
              "name": "Body System or Organ Class",
              "@TYPE": "Char",
              "@LENGTH": "200",
              "@ROLE": "Record Qualifier",
              "@CORE": "Perm",
              "@CONTROLLED": "",
              "description": "",
              "@ORIGIN": "Assigned",
              "@ORDER": "36",
              "@Comments": "MedDRA version 13.1"
            },
            {
              "text": "MHBDSYCD",
              "name": "Body System or Organ Class Code",
              "@TYPE": "Num",
              "@LENGTH": "8",
              "@ROLE": "Variable Qualifier",
              "@CORE": "Perm",
              "@CONTROLLED": "",
              "description": "",
              "@ORIGIN": "Assigned",
              "@ORDER": "37",
              "@Comments": "MedDRA version 13.1"
            },
            {
              "text": "MHSOC",
              "name": "Primary System Organ Class",
              "@TYPE": "Char",
              "@LENGTH": "200",
              "@ROLE": "Variable Qualifier",
              "@CORE": "Perm",
              "@CONTROLLED": "",
              "description": "",
              "@ORIGIN": "Assigned",
              "@ORDER": "38",
              "@Comments": "MedDRA version 13.1"
            },
            {
              "text": "MHSOCCD",
              "name": "Primary System Organ Class Code",
              "@TYPE": "Num",
              "@LENGTH": "8",
              "@ROLE": "Variable Qualifier",
              "@CORE": "Perm",
              "@CONTROLLED": "",
              "description": "",
              "@ORIGIN": "Assigned",
              "@ORDER": "39",
              "@Comments": "MedDRA version 13.1"
            },
            {
              "text": "MHDTC",
              "name": "Date/Time of History Collection",
              "@TYPE": "Char",
              "@LENGTH": "20",
              "@ROLE": "Timing",
              "@CORE": "Perm",
              "@CONTROLLED": "ISO 8601",
              "description": "",
              "@ORIGIN": "Assigned",
              "@ORDER": "105",
              "@Comments": ""
            },
            {
              "text": "MHSTDTC",
              "name": "Start Date/Time of Medical History Event",
              "@TYPE": "Char",
              "@LENGTH": "20",
              "@ROLE": "Timing",
              "@CORE": "Perm",
              "@CONTROLLED": "ISO 8601",
              "description": "",
              "@ORIGIN": "Assigned",
              "@ORDER": "106",
              "@Comments": ""
            },
            {
              "text": "MHENDTC",
              "name": "End Date/Time of Medical History Event",
              "@TYPE": "Char",
              "@LENGTH": "20",
              "@ROLE": "Timing",
              "@CORE": "Perm",
              "@CONTROLLED": "ISO 8601",
              "description": "",
              "@ORIGIN": "Assigned",
              "@ORDER": "107",
              "@Comments": ""
            },
            {
              "text": "MHDY",
              "name": "Study Day of History Collection",
              "@TYPE": "Num",
              "@LENGTH": "8",
              "@ROLE": "Timing",
              "@CORE": "Perm",
              "@CONTROLLED": "",
              "description": "",
              "@ORIGIN": "Derived",
              "@ORDER": "108",
              "@Comments": "Relative study day between <MHDTC> and DM.RFSTDTC. Add 1 if the difference is greater than or equal to 0."
            },
            {
              "text": "MHSTDY",
              "name": "Study Day of Start of Medical History",
              "@TYPE": "Num",
              "@LENGTH": "8",
              "@ROLE": "Timing",
              "@CORE": "Perm",
              "@CONTROLLED": "",
              "description": "",
              "@ORIGIN": "Derived",
              "@ORDER": "109",
              "@Comments": "Relative study day between <MHSTDTC> and DM.RFSTDTC. Add 1 if the difference is greater than or equal to 0."
            },
            {
              "text": "MHENDY",
              "name": "Study Day of End of Medical History",
              "@TYPE": "Num",
              "@LENGTH": "8",
              "@ROLE": "Timing",
              "@CORE": "Perm",
              "@CONTROLLED": "",
              "description": "",
              "@ORIGIN": "Derived",
              "@ORDER": "110",
              "@Comments": "Relative study day between <MHENDTC> and DM.RFSTDTC. Add 1 if the difference is greater than or equal to 0."
            },
            {
              "text": "MHENRF",
              "name": "End Relative to Reference Period",
              "@TYPE": "Char",
              "@LENGTH": "12",
              "@ROLE": "Timing",
              "@CORE": "Perm",
              "@CONTROLLED": "(STENRF)",
              "description": "",
              "@ORIGIN": "Assigned",
              "@ORDER": "118",
              "@Comments": ""
            },
            {
              "text": "MHENRTPT",
              "name": "End Relative to Reference Time Point",
              "@TYPE": "Char",
              "@LENGTH": "12",
              "@ROLE": "Timing",
              "@CORE": "Perm",
              "@CONTROLLED": "(STENRF)",
              "description": "",
              "@ORIGIN": "Assigned",
              "@ORDER": "122",
              "@Comments": ""
            },
            {
              "text": "MHENTPT",
              "name": "End Reference Time Point",
              "@TYPE": "Char",
              "@LENGTH": "200",
              "@ROLE": "Timing",
              "@CORE": "Perm",
              "@CONTROLLED": "",
              "description": "",
              "@ORIGIN": "Assigned",
              "@ORDER": "123",
              "@Comments": ""
            }
          ]
        },
        {
          "name": "DV",
          "text": "Protocol Deviations",
          "structure": "One record per protocol deviation per subject",
          "class": "Events",
          "description": "",
          "children": [
            {
              "text": "STUDYID",
              "name": "Study Identifier",
              "@TYPE": "Char",
              "@LENGTH": "20",
              "@ROLE": "Identifier",
              "@CORE": "Req",
              "@CONTROLLED": "",
              "description": "",
              "@ORIGIN": "Assigned",
              "@ORDER": "1",
              "@Comments": ""
            },
            {
              "text": "DOMAIN",
              "name": "Domain Abbreviation",
              "@TYPE": "Char",
              "@LENGTH": "2",
              "@ROLE": "Identifier",
              "@CORE": "Req",
              "@CONTROLLED": "",
              "description": "",
              "@ORIGIN": "Assigned",
              "@ORDER": "2",
              "@Comments": ""
            },
            {
              "text": "USUBJID",
              "name": "Unique Subject Identifier",
              "@TYPE": "Char",
              "@LENGTH": "25",
              "@ROLE": "Identifier",
              "@CORE": "Req",
              "@CONTROLLED": "",
              "description": "",
              "@ORIGIN": "Derived",
              "@ORDER": "4",
              "@Comments": "Concatenate STUDYID, SITEID and SUBJID, separated by \"-\"."
            },
            {
              "text": "DVSEQ",
              "name": "Sequence Number",
              "@TYPE": "Num",
              "@LENGTH": "8",
              "@ROLE": "Identifier",
              "@CORE": "Req",
              "@CONTROLLED": "",
              "description": "",
              "@ORIGIN": "Derived",
              "@ORDER": "8",
              "@Comments": "Sort by the key variables specified in the domain list. Assign DVSEQ=1 to the first record and increment DVSEQ by 1 for each additional record so that DVSEQ is unique for each record within a USUBJID."
            },
            {
              "text": "DVREFID",
              "name": "Reference ID",
              "@TYPE": "Char",
              "@LENGTH": "20",
              "@ROLE": "Identifier",
              "@CORE": "Perm",
              "@CONTROLLED": "",
              "description": "",
              "@ORIGIN": "Assigned",
              "@ORDER": "10",
              "@Comments": ""
            },
            {
              "text": "DVSPID",
              "name": "Sponsor-Defined Identifier",
              "@TYPE": "Char",
              "@LENGTH": "20",
              "@ROLE": "Identifier",
              "@CORE": "Perm",
              "@CONTROLLED": "",
              "description": "",
              "@ORIGIN": "Assigned",
              "@ORDER": "11",
              "@Comments": ""
            },
            {
              "text": "DVTERM",
              "name": "Protocol Deviation Term",
              "@TYPE": "Char",
              "@LENGTH": "200",
              "@ROLE": "Topic",
              "@CORE": "Req",
              "@CONTROLLED": "",
              "description": "",
              "@ORIGIN": "Assigned",
              "@ORDER": "20",
              "@Comments": ""
            },
            {
              "text": "DVDECOD",
              "name": "Protocol Deviation Coded Term",
              "@TYPE": "Char",
              "@LENGTH": "200",
              "@ROLE": "Synonym Qualifier",
              "@CORE": "Perm",
              "@CONTROLLED": "",
              "description": "",
              "@ORIGIN": "Assigned",
              "@ORDER": "24",
              "@Comments": ""
            },
            {
              "text": "DVCAT",
              "name": "Category for Protocol Deviation",
              "@TYPE": "Char",
              "@LENGTH": "200",
              "@ROLE": "Grouping Qualifier",
              "@CORE": "Perm",
              "@CONTROLLED": "",
              "description": "",
              "@ORIGIN": "Assigned",
              "@ORDER": "30",
              "@Comments": ""
            },
            {
              "text": "DVSCAT",
              "name": "Subcategory for Protocol Deviation",
              "@TYPE": "Char",
              "@LENGTH": "200",
              "@ROLE": "Grouping Qualifier",
              "@CORE": "Perm",
              "@CONTROLLED": "",
              "description": "",
              "@ORIGIN": "Assigned",
              "@ORDER": "31",
              "@Comments": ""
            },
            {
              "text": "EPOCH",
              "name": "Epoch",
              "@TYPE": "Char",
              "@LENGTH": "50",
              "@ROLE": "Timing",
              "@CORE": "Perm",
              "@CONTROLLED": "",
              "description": "",
              "@ORIGIN": "Derived",
              "@ORDER": "104",
              "@Comments": "'SCREENING' if DVSTDTC is before RFSTDTC; 'TREATMENT' if DVSTDTC is between RFSTDTC and RFENDTC; 'FOLLOW-UP' if DVSTDTC is after RFENDTC."
            },
            {
              "text": "DVSTDTC",
              "name": "Start Date/Time of Deviation",
              "@TYPE": "Char",
              "@LENGTH": "20",
              "@ROLE": "Timing",
              "@CORE": "Perm",
              "@CONTROLLED": "ISO 8601",
              "description": "",
              "@ORIGIN": "Assigned",
              "@ORDER": "106",
              "@Comments": ""
            },
            {
              "text": "DVENDTC",
              "name": "End Date/Time of Deviation",
              "@TYPE": "Char",
              "@LENGTH": "20",
              "@ROLE": "Timing",
              "@CORE": "Perm",
              "@CONTROLLED": "ISO 8601",
              "description": "",
              "@ORIGIN": "Assigned",
              "@ORDER": "107",
              "@Comments": ""
            },
            {
              "text": "DVSTDY",
              "name": "Study Day of Start of Observation",
              "@TYPE": "Num",
              "@LENGTH": "8",
              "@ROLE": "Timing",
              "@CORE": "Perm",
              "@CONTROLLED": "",
              "description": "",
              "@ORIGIN": "Derived",
              "@ORDER": "109",
              "@Comments": "Relative study day between <DVSTDTC> and DM.RFSTDTC. Add 1 if the difference is greater than or equal to 0."
            },
            {
              "text": "DVENDY",
              "name": "Study Day of End of Observation",
              "@TYPE": "Num",
              "@LENGTH": "8",
              "@ROLE": "Timing",
              "@CORE": "Perm",
              "@CONTROLLED": "",
              "description": "",
              "@ORIGIN": "Derived",
              "@ORDER": "110",
              "@Comments": "Relative study day between <DVENDTC> and DM.RFSTDTC. Add 1 if the difference is greater than or equal to 0."
            }
          ]
        },
        {
          "name": "CE",
          "text": "Clinical Events",
          "structure": "One record per event per subject",
          "class": "Events",
          "description": "",
          "children": [
            {
              "text": "STUDYID",
              "name": "Study Identifier",
              "@TYPE": "Char",
              "@LENGTH": "20",
              "@ROLE": "Identifier",
              "@CORE": "Req",
              "@CONTROLLED": "",
              "description": "",
              "@ORIGIN": "Assigned",
              "@ORDER": "1",
              "@Comments": ""
            },
            {
              "text": "DOMAIN",
              "name": "Domain Abbreviation",
              "@TYPE": "Char",
              "@LENGTH": "2",
              "@ROLE": "Identifier",
              "@CORE": "Req",
              "@CONTROLLED": "",
              "description": "",
              "@ORIGIN": "Assigned",
              "@ORDER": "2",
              "@Comments": ""
            },
            {
              "text": "USUBJID",
              "name": "Unique Subject Identifier",
              "@TYPE": "Char",
              "@LENGTH": "25",
              "@ROLE": "Identifier",
              "@CORE": "Req",
              "@CONTROLLED": "",
              "description": "",
              "@ORIGIN": "Derived",
              "@ORDER": "4",
              "@Comments": "Concatenate STUDYID, SITEID and SUBJID, separated by \"-\"."
            },
            {
              "text": "CESEQ",
              "name": "Sequence Number",
              "@TYPE": "Num",
              "@LENGTH": "8",
              "@ROLE": "Identifier",
              "@CORE": "Req",
              "@CONTROLLED": "",
              "description": "",
              "@ORIGIN": "Derived",
              "@ORDER": "8",
              "@Comments": "Sort by the key variables specified in the domain list. Assign CESEQ=1 to the first record and increment CESEQ by 1 for each additional record so that CESEQ is unique for each record within a USUBJID."
            },
            {
              "text": "CEGRPID",
              "name": "Group ID",
              "@TYPE": "Char",
              "@LENGTH": "20",
              "@ROLE": "Identifier",
              "@CORE": "Perm",
              "@CONTROLLED": "",
              "description": "",
              "@ORIGIN": "Assigned",
              "@ORDER": "9",
              "@Comments": ""
            },
            {
              "text": "CEREFID",
              "name": "Reference ID",
              "@TYPE": "Char",
              "@LENGTH": "20",
              "@ROLE": "Identifier",
              "@CORE": "Perm",
              "@CONTROLLED": "",
              "description": "",
              "@ORIGIN": "Assigned",
              "@ORDER": "10",
              "@Comments": ""
            },
            {
              "text": "CESPID",
              "name": "Sponsor-Defined Identifier",
              "@TYPE": "Char",
              "@LENGTH": "20",
              "@ROLE": "Identifier",
              "@CORE": "Perm",
              "@CONTROLLED": "",
              "description": "",
              "@ORIGIN": "Assigned",
              "@ORDER": "11",
              "@Comments": ""
            },
            {
              "text": "CETERM",
              "name": "Reported Term for the Clinical Event",
              "@TYPE": "Char",
              "@LENGTH": "200",
              "@ROLE": "Topic",
              "@CORE": "Req",
              "@CONTROLLED": "",
              "description": "",
              "@ORIGIN": "Assigned",
              "@ORDER": "20",
              "@Comments": ""
            },
            {
              "text": "CEDECOD",
              "name": "Dictionary-Derived Term",
              "@TYPE": "Char",
              "@LENGTH": "200",
              "@ROLE": "Synonym Qualifier",
              "@CORE": "Perm",
              "@CONTROLLED": "",
              "description": "",
              "@ORIGIN": "Assigned",
              "@ORDER": "24",
              "@Comments": ""
            },
            {
              "text": "CECAT",
              "name": "Category for Clinical Event",
              "@TYPE": "Char",
              "@LENGTH": "200",
              "@ROLE": "Grouping Qualifier",
              "@CORE": "Perm",
              "@CONTROLLED": "",
              "description": "",
              "@ORIGIN": "Assigned",
              "@ORDER": "30",
              "@Comments": ""
            },
            {
              "text": "CESCAT",
              "name": "Subcategory for Clinical Event",
              "@TYPE": "Char",
              "@LENGTH": "200",
              "@ROLE": "Grouping Qualifier",
              "@CORE": "Perm",
              "@CONTROLLED": "",
              "description": "",
              "@ORIGIN": "Assigned",
              "@ORDER": "31",
              "@Comments": ""
            },
            {
              "text": "CEPRESP",
              "name": "Clinical Event Pre-Specified",
              "@TYPE": "Char",
              "@LENGTH": "1",
              "@ROLE": "Record Qualifier",
              "@CORE": "Perm",
              "@CONTROLLED": "(NY)",
              "description": "",
              "@ORIGIN": "Assigned",
              "@ORDER": "32",
              "@Comments": ""
            },
            {
              "text": "CEOCCUR",
              "name": "Clinical Event Occurrence",
              "@TYPE": "Char",
              "@LENGTH": "1",
              "@ROLE": "Record Qualifier",
              "@CORE": "Perm",
              "@CONTROLLED": "(NY)",
              "description": "",
              "@ORIGIN": "Assigned",
              "@ORDER": "33",
              "@Comments": ""
            },
            {
              "text": "CESTAT",
              "name": "Completion Status",
              "@TYPE": "Char",
              "@LENGTH": "8",
              "@ROLE": "Record Qualifier",
              "@CORE": "Perm",
              "@CONTROLLED": "(ND)",
              "description": "",
              "@ORIGIN": "Assigned",
              "@ORDER": "34",
              "@Comments": ""
            },
            {
              "text": "CEREASND",
              "name": "Reason Clinical Event Not Collected",
              "@TYPE": "Char",
              "@LENGTH": "200",
              "@ROLE": "Record Qualifier",
              "@CORE": "Perm",
              "@CONTROLLED": "",
              "description": "",
              "@ORIGIN": "Assigned",
              "@ORDER": "35",
              "@Comments": ""
            },
            {
              "text": "CEBODSYS",
              "name": "Body System or Organ Class",
              "@TYPE": "Char",
              "@LENGTH": "200",
              "@ROLE": "Record Qualifier",
              "@CORE": "Perm",
              "@CONTROLLED": "",
              "description": "",
              "@ORIGIN": "Assigned",
              "@ORDER": "36",
              "@Comments": ""
            },
            {
              "text": "CESEV",
              "name": "Severity/Intensity",
              "@TYPE": "Char",
              "@LENGTH": "8",
              "@ROLE": "Record Qualifier",
              "@CORE": "Perm",
              "@CONTROLLED": "",
              "description": "",
              "@ORIGIN": "Assigned",
              "@ORDER": "41",
              "@Comments": ""
            },
            {
              "text": "CEDTC",
              "name": "Date/Time of Event Collection",
              "@TYPE": "Char",
              "@LENGTH": "20",
              "@ROLE": "Timing",
              "@CORE": "Perm",
              "@CONTROLLED": "ISO 8601",
              "description": "",
              "@ORIGIN": "Assigned",
              "@ORDER": "105",
              "@Comments": ""
            },
            {
              "text": "CESTDTC",
              "name": "Start Date/Time of Clinical Event",
              "@TYPE": "Char",
              "@LENGTH": "20",
              "@ROLE": "Timing",
              "@CORE": "Perm",
              "@CONTROLLED": "ISO 8601",
              "description": "",
              "@ORIGIN": "Assigned",
              "@ORDER": "106",
              "@Comments": ""
            },
            {
              "text": "CEENDTC",
              "name": "End Date/Time of Clinical Event",
              "@TYPE": "Char",
              "@LENGTH": "20",
              "@ROLE": "Timing",
              "@CORE": "Perm",
              "@CONTROLLED": "ISO 8601",
              "description": "",
              "@ORIGIN": "Assigned",
              "@ORDER": "107",
              "@Comments": ""
            },
            {
              "text": "CEDY",
              "name": "Study Day of Event Collection",
              "@TYPE": "Num",
              "@LENGTH": "8",
              "@ROLE": "Timing",
              "@CORE": "Perm",
              "@CONTROLLED": "",
              "description": "",
              "@ORIGIN": "Derived",
              "@ORDER": "108",
              "@Comments": "Relative study day between <CDTC> and DM.RFSTDTC. Add 1 if the difference is greater than or equal to 0."
            },
            {
              "text": "CESTDY",
              "name": "Study Day of Start of Observation",
              "@TYPE": "Num",
              "@LENGTH": "8",
              "@ROLE": "Timing",
              "@CORE": "Perm",
              "@CONTROLLED": "",
              "description": "",
              "@ORIGIN": "Derived",
              "@ORDER": "109",
              "@Comments": "Relative study day between <CESTDTC> and DM.RFSTDTC. Add 1 if the difference is greater than or equal to 0."
            },
            {
              "text": "CEENDY",
              "name": "Study Day of End of Observation",
              "@TYPE": "Num",
              "@LENGTH": "8",
              "@ROLE": "Timing",
              "@CORE": "Perm",
              "@CONTROLLED": "",
              "description": "",
              "@ORIGIN": "Derived",
              "@ORDER": "110",
              "@Comments": "Relative study day between <CEENDTC> and DM.RFSTDTC. Add 1 if the difference is greater than or equal to 0."
            },
            {
              "text": "CESTRF",
              "name": "Start Relative to Reference Period",
              "@TYPE": "Char",
              "@LENGTH": "12",
              "@ROLE": "Timing",
              "@CORE": "Perm",
              "@CONTROLLED": "(STENRF)",
              "description": "",
              "@ORIGIN": "Assigned",
              "@ORDER": "117",
              "@Comments": ""
            },
            {
              "text": "CEENRF",
              "name": "End Relative to Reference Period",
              "@TYPE": "Char",
              "@LENGTH": "12",
              "@ROLE": "Timing",
              "@CORE": "Perm",
              "@CONTROLLED": "(STENRF)",
              "description": "",
              "@ORIGIN": "Assigned",
              "@ORDER": "118",
              "@Comments": ""
            },
            {
              "text": "CESTRTPT",
              "name": "Start Relative to Reference Time Point",
              "@TYPE": "Char",
              "@LENGTH": "12",
              "@ROLE": "Timing",
              "@CORE": "Perm",
              "@CONTROLLED": "(STENRF)",
              "description": "",
              "@ORIGIN": "Assigned",
              "@ORDER": "120",
              "@Comments": ""
            },
            {
              "text": "CESTTPT",
              "name": "Start Reference Time Point",
              "@TYPE": "Char",
              "@LENGTH": "200",
              "@ROLE": "Timing",
              "@CORE": "Perm",
              "@CONTROLLED": "",
              "description": "",
              "@ORIGIN": "Assigned",
              "@ORDER": "121",
              "@Comments": ""
            },
            {
              "text": "CEENRTPT",
              "name": "End Relative to Reference Time Point",
              "@TYPE": "Char",
              "@LENGTH": "12",
              "@ROLE": "Timing",
              "@CORE": "Perm",
              "@CONTROLLED": "(STENRF)",
              "description": "",
              "@ORIGIN": "Assigned",
              "@ORDER": "122",
              "@Comments": ""
            },
            {
              "text": "CEENTPT",
              "name": "End Reference Time Point",
              "@TYPE": "Char",
              "@LENGTH": "200",
              "@ROLE": "Timing",
              "@CORE": "Perm",
              "@CONTROLLED": "",
              "description": "",
              "@ORIGIN": "Assigned",
              "@ORDER": "123",
              "@Comments": ""
            }
          ]
        },
        {
          "name": "HO",
          "text": "Hospitalization",
          "structure": "One record per subject per hospitalization event",
          "class": "Events",
          "description": "",
          "children": [
            {
              "text": "STUDYID",
              "name": "Study Identifier",
              "@TYPE": "Char",
              "@LENGTH": "20",
              "@ROLE": "Identifier",
              "@CORE": "Req",
              "@CONTROLLED": "",
              "description": "",
              "@ORIGIN": "Assigned",
              "@ORDER": "1",
              "@Comments": ""
            },
            {
              "text": "DOMAIN",
              "name": "Domain Abbreviation",
              "@TYPE": "Char",
              "@LENGTH": "2",
              "@ROLE": "Identifier",
              "@CORE": "Req",
              "@CONTROLLED": "",
              "description": "",
              "@ORIGIN": "Assigned",
              "@ORDER": "2",
              "@Comments": ""
            },
            {
              "text": "USUBJID",
              "name": "Unique Subject Identifier",
              "@TYPE": "Char",
              "@LENGTH": "25",
              "@ROLE": "Identifier",
              "@CORE": "Req",
              "@CONTROLLED": "",
              "description": "",
              "@ORIGIN": "Derived",
              "@ORDER": "4",
              "@Comments": "Concatenate STUDYID, SITEID and SUBJID, separated by \"-\"."
            },
            {
              "text": "HOSEQ",
              "name": "Sequence Number",
              "@TYPE": "Num",
              "@LENGTH": "8",
              "@ROLE": "Identifier",
              "@CORE": "Req",
              "@CONTROLLED": "",
              "description": "",
              "@ORIGIN": "Derived",
              "@ORDER": "8",
              "@Comments": "Sort by the key variables specified in the domain list. Assign HOSEQ=1 to the first record and increment HOSEQ by 1 for each additional record so that HOSEQ is unique for each record within a USUBJID."
            },
            {
              "text": "HOGRPID",
              "name": "Group ID",
              "@TYPE": "Char",
              "@LENGTH": "20",
              "@ROLE": "Identifier",
              "@CORE": "",
              "@CONTROLLED": "",
              "description": "",
              "@ORIGIN": "Assigned",
              "@ORDER": "9",
              "@Comments": ""
            },
            {
              "text": "HOREFID",
              "name": "Reference ID",
              "@TYPE": "Char",
              "@LENGTH": "20",
              "@ROLE": "Identifier",
              "@CORE": "",
              "@CONTROLLED": "",
              "description": "",
              "@ORIGIN": "Assigned",
              "@ORDER": "10",
              "@Comments": ""
            },
            {
              "text": "HOSPID",
              "name": "Sponsor-Defined Identifier",
              "@TYPE": "Char",
              "@LENGTH": "20",
              "@ROLE": "Identifier",
              "@CORE": "",
              "@CONTROLLED": "",
              "description": "",
              "@ORIGIN": "Assigned",
              "@ORDER": "11",
              "@Comments": ""
            },
            {
              "text": "HOTERM",
              "name": "Reported Term",
              "@TYPE": "Char",
              "@LENGTH": "200",
              "@ROLE": "Topic",
              "@CORE": "",
              "@CONTROLLED": "",
              "description": "",
              "@ORIGIN": "Assigned",
              "@ORDER": "20",
              "@Comments": ""
            },
            {
              "text": "HODECOD",
              "name": "Dictionary-Derived Term",
              "@TYPE": "Char",
              "@LENGTH": "200",
              "@ROLE": "Synonym Qualifier",
              "@CORE": "",
              "@CONTROLLED": "",
              "description": "",
              "@ORIGIN": "Assigned",
              "@ORDER": "24",
              "@Comments": "MedDRA version 13.1"
            },
            {
              "text": "HOCAT",
              "name": "Category",
              "@TYPE": "Char",
              "@LENGTH": "200",
              "@ROLE": "Grouping Qualifier",
              "@CORE": "",
              "@CONTROLLED": "",
              "description": "",
              "@ORIGIN": "Assigned",
              "@ORDER": "30",
              "@Comments": ""
            },
            {
              "text": "HOSCAT",
              "name": "Subcategory",
              "@TYPE": "Char",
              "@LENGTH": "200",
              "@ROLE": "Grouping Qualifier",
              "@CORE": "",
              "@CONTROLLED": "",
              "description": "",
              "@ORIGIN": "Assigned",
              "@ORDER": "31",
              "@Comments": ""
            },
            {
              "text": "HOPRESP",
              "name": "Pre-specified",
              "@TYPE": "Char",
              "@LENGTH": "1",
              "@ROLE": "Record Qualifier",
              "@CORE": "",
              "@CONTROLLED": "",
              "description": "",
              "@ORIGIN": "Assigned",
              "@ORDER": "32",
              "@Comments": ""
            },
            {
              "text": "HOOCCUR",
              "name": "Occurrence",
              "@TYPE": "Char",
              "@LENGTH": "1",
              "@ROLE": "Record Qualifier",
              "@CORE": "",
              "@CONTROLLED": "NY",
              "description": "",
              "@ORIGIN": "Assigned",
              "@ORDER": "33",
              "@Comments": ""
            },
            {
              "text": "HOSTAT",
              "name": "Completion Status",
              "@TYPE": "Char",
              "@LENGTH": "8",
              "@ROLE": "Record Qualifier",
              "@CORE": "",
              "@CONTROLLED": "ND",
              "description": "",
              "@ORIGIN": "Assigned",
              "@ORDER": "34",
              "@Comments": ""
            },
            {
              "text": "HOREASND",
              "name": "Reason Not Done",
              "@TYPE": "Char",
              "@LENGTH": "200",
              "@ROLE": "Record Qualifier",
              "@CORE": "",
              "@CONTROLLED": "",
              "description": "",
              "@ORIGIN": "Assigned",
              "@ORDER": "35",
              "@Comments": ""
            },
            {
              "text": "HOSTDTC",
              "name": "Start Date/Time of Observation",
              "@TYPE": "Char",
              "@LENGTH": "20",
              "@ROLE": "Timing",
              "@CORE": "",
              "@CONTROLLED": "",
              "description": "",
              "@ORIGIN": "Assigned",
              "@ORDER": "106",
              "@Comments": ""
            },
            {
              "text": "HOENDTC",
              "name": "End Date/Time of Observation",
              "@TYPE": "Char",
              "@LENGTH": "20",
              "@ROLE": "Timing",
              "@CORE": "",
              "@CONTROLLED": "",
              "description": "",
              "@ORIGIN": "Assigned",
              "@ORDER": "107",
              "@Comments": ""
            },
            {
              "text": "HOSTDY",
              "name": "Study Day of Start of Observation",
              "@TYPE": "Num",
              "@LENGTH": "8",
              "@ROLE": "Timing",
              "@CORE": "",
              "@CONTROLLED": "",
              "description": "",
              "@ORIGIN": "Derived",
              "@ORDER": "109",
              "@Comments": "Relative study day between <HOSTDTC> and DM.RFSTDTC. Add 1 if the difference is greater than or equal to 0."
            },
            {
              "text": "HOENDY",
              "name": "Study Day of End of Observation",
              "@TYPE": "Num",
              "@LENGTH": "8",
              "@ROLE": "Timing",
              "@CORE": "",
              "@CONTROLLED": "",
              "description": "",
              "@ORIGIN": "Derived",
              "@ORDER": "110",
              "@Comments": "Relative study day between <HOENDTC> and DM.RFSTDTC. Add 1 if the difference is greater than or equal to 0."
            },
            {
              "text": "HOENRF",
              "name": "End Relative to Reference Period",
              "@TYPE": "Char",
              "@LENGTH": "12",
              "@ROLE": "Timing",
              "@CORE": "",
              "@CONTROLLED": "STENRF",
              "description": "",
              "@ORIGIN": "Assigned",
              "@ORDER": "118",
              "@Comments": ""
            }
          ]
        },
        {
          "name": "EG",
          "text": "ECG Test Results",
          "structure": "One record per ECG observation per time point per visit per subject",
          "class": "Findings",
          "description": "",
          "children": [
            {
              "text": "STUDYID",
              "name": "Study Identifier",
              "@TYPE": "Char",
              "@LENGTH": "20",
              "@ROLE": "Identifier",
              "@CORE": "Req",
              "@CONTROLLED": "",
              "description": "",
              "@ORIGIN": "Assigned",
              "@ORDER": "1",
              "@Comments": ""
            },
            {
              "text": "DOMAIN",
              "name": "Domain Abbreviation",
              "@TYPE": "Char",
              "@LENGTH": "2",
              "@ROLE": "Identifier",
              "@CORE": "Req",
              "@CONTROLLED": "",
              "description": "",
              "@ORIGIN": "Assigned",
              "@ORDER": "2",
              "@Comments": ""
            },
            {
              "text": "USUBJID",
              "name": "Unique Subject Identifier",
              "@TYPE": "Char",
              "@LENGTH": "25",
              "@ROLE": "Identifier",
              "@CORE": "Req",
              "@CONTROLLED": "",
              "description": "",
              "@ORIGIN": "Derived",
              "@ORDER": "4",
              "@Comments": "Concatenate STUDYID, SITEID and SUBJID, separated by \"-\"."
            },
            {
              "text": "EGSEQ",
              "name": "Sequence Number",
              "@TYPE": "Num",
              "@LENGTH": "8",
              "@ROLE": "Identifier",
              "@CORE": "Req",
              "@CONTROLLED": "",
              "description": "",
              "@ORIGIN": "Derived",
              "@ORDER": "8",
              "@Comments": "Sort by the key variables specified in the domain list. Assign EGSEQ=1 to the first record and increment EGSEQ by 1 for each additional record so that EGSEQ is unique for each record within a USUBJID."
            },
            {
              "text": "EGGRPID",
              "name": "Group ID",
              "@TYPE": "Char",
              "@LENGTH": "20",
              "@ROLE": "Identifier",
              "@CORE": "Perm",
              "@CONTROLLED": "",
              "description": "",
              "@ORIGIN": "Assigned",
              "@ORDER": "9",
              "@Comments": ""
            },
            {
              "text": "EGREFID",
              "name": "ECG Reference ID",
              "@TYPE": "Char",
              "@LENGTH": "20",
              "@ROLE": "Identifier",
              "@CORE": "Perm",
              "@CONTROLLED": "",
              "description": "",
              "@ORIGIN": "Assigned",
              "@ORDER": "10",
              "@Comments": ""
            },
            {
              "text": "EGSPID",
              "name": "Sponsor-Defined Identifier",
              "@TYPE": "Char",
              "@LENGTH": "20",
              "@ROLE": "Identifier",
              "@CORE": "Perm",
              "@CONTROLLED": "",
              "description": "",
              "@ORIGIN": "Assigned",
              "@ORDER": "11",
              "@Comments": ""
            },
            {
              "text": "EGTESTCD",
              "name": "ECG Test or Examination Short Name",
              "@TYPE": "Char",
              "@LENGTH": "8",
              "@ROLE": "Topic",
              "@CORE": "Req",
              "@CONTROLLED": "",
              "description": "",
              "@ORIGIN": "Assigned",
              "@ORDER": "20",
              "@Comments": ""
            },
            {
              "text": "EGTEST",
              "name": "ECG Test or Examination Name",
              "@TYPE": "Char",
              "@LENGTH": "40",
              "@ROLE": "Synonym Qualifier",
              "@CORE": "Req",
              "@CONTROLLED": "",
              "description": "",
              "@ORIGIN": "Assigned",
              "@ORDER": "21",
              "@Comments": ""
            },
            {
              "text": "EGCAT",
              "name": "Category for ECG",
              "@TYPE": "Char",
              "@LENGTH": "200",
              "@ROLE": "Grouping Qualifier",
              "@CORE": "Perm",
              "@CONTROLLED": "",
              "description": "",
              "@ORIGIN": "Assigned",
              "@ORDER": "24",
              "@Comments": ""
            },
            {
              "text": "EGSCAT",
              "name": "Subcategory for ECG",
              "@TYPE": "Char",
              "@LENGTH": "200",
              "@ROLE": "Grouping Qualifier",
              "@CORE": "Perm",
              "@CONTROLLED": "",
              "description": "",
              "@ORIGIN": "Assigned",
              "@ORDER": "25",
              "@Comments": ""
            },
            {
              "text": "EGPOS",
              "name": "ECG Position of Subject",
              "@TYPE": "Char",
              "@LENGTH": "50",
              "@ROLE": "Record Qualifier",
              "@CORE": "Perm",
              "@CONTROLLED": "(POSITION)",
              "description": "",
              "@ORIGIN": "Protocol",
              "@ORDER": "26",
              "@Comments": ""
            },
            {
              "text": "EGORRES",
              "name": "Result or Finding in Original Units",
              "@TYPE": "Char",
              "@LENGTH": "200",
              "@ROLE": "Result Qualifier",
              "@CORE": "Exp",
              "@CONTROLLED": "",
              "description": "",
              "@ORIGIN": "Assigned",
              "@ORDER": "28",
              "@Comments": ""
            },
            {
              "text": "EGORRESU",
              "name": "Original Units",
              "@TYPE": "Char",
              "@LENGTH": "20",
              "@ROLE": "Variable Qualifier",
              "@CORE": "Perm",
              "@CONTROLLED": "(UNIT)",
              "description": "",
              "@ORIGIN": "Assigned",
              "@ORDER": "29",
              "@Comments": ""
            },
            {
              "text": "EGSTRESC",
              "name": "Character Result/Finding in Std Format",
              "@TYPE": "Char",
              "@LENGTH": "200",
              "@ROLE": "Result Qualifier",
              "@CORE": "Exp",
              "@CONTROLLED": "(EGSTRESC)",
              "description": "",
              "@ORIGIN": "Derived",
              "@ORDER": "32",
              "@Comments": "If data collected in non-standard units, then data is converted using standard conversion factors to standard units; else equal to EGORRES."
            },
            {
              "text": "EGSTRESN",
              "name": "Numeric Result/Finding in Standard Units",
              "@TYPE": "Num",
              "@LENGTH": "8",
              "@ROLE": "Result Qualifier",
              "@CORE": "Perm",
              "@CONTROLLED": "",
              "description": "",
              "@ORIGIN": "Derived",
              "@ORDER": "33",
              "@Comments": "Equal to numeric value of EGSTRESC"
            },
            {
              "text": "EGSTRESU",
              "name": "Standard Units",
              "@TYPE": "Char",
              "@LENGTH": "20",
              "@ROLE": "Variable Qualifier",
              "@CORE": "Perm",
              "@CONTROLLED": "(UNIT)",
              "description": "",
              "@ORIGIN": "Assigned",
              "@ORDER": "34",
              "@Comments": ""
            },
            {
              "text": "EGSTAT",
              "name": "Completion Status",
              "@TYPE": "Char",
              "@LENGTH": "8",
              "@ROLE": "Record Qualifier",
              "@CORE": "Perm",
              "@CONTROLLED": "(ND)",
              "description": "",
              "@ORIGIN": "Assigned",
              "@ORDER": "40",
              "@Comments": ""
            },
            {
              "text": "EGREASND",
              "name": "Reason ECG Not Performed",
              "@TYPE": "Char",
              "@LENGTH": "200",
              "@ROLE": "Record Qualifier",
              "@CORE": "Perm",
              "@CONTROLLED": "",
              "description": "",
              "@ORIGIN": "Assigned",
              "@ORDER": "41",
              "@Comments": ""
            },
            {
              "text": "EGXFN",
              "name": "ECG External File Path",
              "@TYPE": "Char",
              "@LENGTH": "200",
              "@ROLE": "Record Qualifier",
              "@CORE": "Perm",
              "@CONTROLLED": "",
              "description": "",
              "@ORIGIN": "Assigned",
              "@ORDER": "42",
              "@Comments": ""
            },
            {
              "text": "EGNAM",
              "name": "Vendor Name",
              "@TYPE": "Char",
              "@LENGTH": "200",
              "@ROLE": "Record Qualifier",
              "@CORE": "Perm",
              "@CONTROLLED": "",
              "description": "",
              "@ORIGIN": "Assigned",
              "@ORDER": "43",
              "@Comments": ""
            },
            {
              "text": "EGLOC",
              "name": "Lead Location Used for Measurement",
              "@TYPE": "Char",
              "@LENGTH": "200",
              "@ROLE": "Record Qualifier",
              "@CORE": "Perm",
              "@CONTROLLED": "(LOC)",
              "description": "",
              "@ORIGIN": "Protocol",
              "@ORDER": "49",
              "@Comments": ""
            },
            {
              "text": "EGMETHOD",
              "name": "Method of ECG Test",
              "@TYPE": "Char",
              "@LENGTH": "200",
              "@ROLE": "Record Qualifier",
              "@CORE": "Perm",
              "@CONTROLLED": "(EGMETHOD)",
              "description": "",
              "@ORIGIN": "Protocol",
              "@ORDER": "53",
              "@Comments": ""
            },
            {
              "text": "EGLEAD",
              "name": "Lead Identified to Collect Measurements",
              "@TYPE": "Char",
              "@LENGTH": "10",
              "@ROLE": "Record Qualifier",
              "@CORE": "Perm",
              "@CONTROLLED": "(EGLEAD)",
              "description": "",
              "@ORIGIN": "Assigned",
              "@ORDER": "54",
              "@Comments": ""
            },
            {
              "text": "EGBLFL",
              "name": "Baseline Flag",
              "@TYPE": "Char",
              "@LENGTH": "1",
              "@ROLE": "Record Qualifier",
              "@CORE": "Exp",
              "@CONTROLLED": "(NY)",
              "description": "",
              "@ORIGIN": "Derived",
              "@ORDER": "56",
              "@Comments": "Derivation of baseline: Safety subjects only: EGBLFL=Y for last non missing record on or before the first dose date (RFSTDTC)."
            },
            {
              "text": "EGDRVFL",
              "name": "Derived Flag",
              "@TYPE": "Char",
              "@LENGTH": "1",
              "@ROLE": "Record Qualifier",
              "@CORE": "Perm",
              "@CONTROLLED": "(NY)",
              "description": "",
              "@ORIGIN": "Assigned",
              "@ORDER": "58",
              "@Comments": ""
            },
            {
              "text": "EGEVAL",
              "name": "Evaluator",
              "@TYPE": "Char",
              "@LENGTH": "20",
              "@ROLE": "Record Qualifier",
              "@CORE": "Perm",
              "@CONTROLLED": "",
              "description": "",
              "@ORIGIN": "Assigned",
              "@ORDER": "59",
              "@Comments": ""
            },
            {
              "text": "VISITNUM",
              "name": "Visit Number",
              "@TYPE": "Num",
              "@LENGTH": "8",
              "@ROLE": "Timing",
              "@CORE": "Exp",
              "@CONTROLLED": "",
              "description": "",
              "@ORIGIN": "Assigned",
              "@ORDER": "100",
              "@Comments": ""
            },
            {
              "text": "VISIT",
              "name": "Visit Name",
              "@TYPE": "Char",
              "@LENGTH": "200",
              "@ROLE": "Timing",
              "@CORE": "Perm",
              "@CONTROLLED": "",
              "description": "",
              "@ORIGIN": "Assigned",
              "@ORDER": "101",
              "@Comments": ""
            },
            {
              "text": "VISITDY",
              "name": "Planned Study Day of Visit",
              "@TYPE": "Num",
              "@LENGTH": "8",
              "@ROLE": "Timing",
              "@CORE": "Perm",
              "@CONTROLLED": "",
              "description": "",
              "@ORIGIN": "Protocol",
              "@ORDER": "102",
              "@Comments": ""
            },
            {
              "text": "EGDTC",
              "name": "Date/Time of ECG",
              "@TYPE": "Char",
              "@LENGTH": "20",
              "@ROLE": "Timing",
              "@CORE": "Exp",
              "@CONTROLLED": "ISO 8601",
              "description": "",
              "@ORIGIN": "Assigned",
              "@ORDER": "105",
              "@Comments": ""
            },
            {
              "text": "EGDY",
              "name": "Study Day of ECG",
              "@TYPE": "Num",
              "@LENGTH": "8",
              "@ROLE": "Timing",
              "@CORE": "Perm",
              "@CONTROLLED": "",
              "description": "",
              "@ORIGIN": "Derived",
              "@ORDER": "108",
              "@Comments": "Relative study day between <EGDTC> and DM.RFSTDTC. Add 1 if the difference is greater than or equal to 0."
            },
            {
              "text": "EGTPT",
              "name": "Planned Time Point Name",
              "@TYPE": "Char",
              "@LENGTH": "200",
              "@ROLE": "Timing",
              "@CORE": "Perm",
              "@CONTROLLED": "",
              "description": "",
              "@ORIGIN": "Assigned",
              "@ORDER": "112",
              "@Comments": ""
            },
            {
              "text": "EGTPTNUM",
              "name": "Planned Time Point Number",
              "@TYPE": "Num",
              "@LENGTH": "8",
              "@ROLE": "Timing",
              "@CORE": "Perm",
              "@CONTROLLED": "",
              "description": "",
              "@ORIGIN": "Assigned",
              "@ORDER": "113",
              "@Comments": ""
            },
            {
              "text": "EGELTM",
              "name": "Planned Elapsed Time from Time Point Ref",
              "@TYPE": "Char",
              "@LENGTH": "20",
              "@ROLE": "Timing",
              "@CORE": "Perm",
              "@CONTROLLED": "ISO 8601",
              "description": "",
              "@ORIGIN": "Assigned",
              "@ORDER": "114",
              "@Comments": ""
            },
            {
              "text": "EGTPTREF",
              "name": "Time Point Reference",
              "@TYPE": "Char",
              "@LENGTH": "200",
              "@ROLE": "Timing",
              "@CORE": "Perm",
              "@CONTROLLED": "",
              "description": "",
              "@ORIGIN": "Assigned",
              "@ORDER": "115",
              "@Comments": ""
            },
            {
              "text": "EGRFTDTC",
              "name": "Date/Time of Reference Time Point",
              "@TYPE": "Char",
              "@LENGTH": "20",
              "@ROLE": "Timing",
              "@CORE": "Perm",
              "@CONTROLLED": "ISO 8601",
              "description": "",
              "@ORIGIN": "Assigned",
              "@ORDER": "116",
              "@Comments": ""
            }
          ]
        },
        {
          "name": "IE",
          "text": "Inclusion/Exclusion Criteria Not Met",
          "structure": "One record per inclusion/exclusion criterion not met per subject",
          "class": "Findings",
          "description": "",
          "children": [
            {
              "text": "STUDYID",
              "name": "Study Identifier",
              "@TYPE": "Char",
              "@LENGTH": "20",
              "@ROLE": "Identifier",
              "@CORE": "Req",
              "@CONTROLLED": "",
              "description": "",
              "@ORIGIN": "Assigned",
              "@ORDER": "1",
              "@Comments": ""
            },
            {
              "text": "DOMAIN",
              "name": "Domain Abbreviation",
              "@TYPE": "Char",
              "@LENGTH": "2",
              "@ROLE": "Identifier",
              "@CORE": "Req",
              "@CONTROLLED": "",
              "description": "",
              "@ORIGIN": "Assigned",
              "@ORDER": "2",
              "@Comments": ""
            },
            {
              "text": "USUBJID",
              "name": "Unique Subject Identifier",
              "@TYPE": "Char",
              "@LENGTH": "25",
              "@ROLE": "Identifier",
              "@CORE": "Req",
              "@CONTROLLED": "",
              "description": "",
              "@ORIGIN": "Derived",
              "@ORDER": "4",
              "@Comments": "Concatenate STUDYID, SITEID and SUBJID, separated by \"-\"."
            },
            {
              "text": "IESEQ",
              "name": "Sequence Number",
              "@TYPE": "Num",
              "@LENGTH": "8",
              "@ROLE": "Identifier",
              "@CORE": "Req",
              "@CONTROLLED": "",
              "description": "",
              "@ORIGIN": "Derived",
              "@ORDER": "8",
              "@Comments": "Sort by the key variables specified in the domain list. Assign IESEQ=1 to the first record and increment IESEQ by 1 for each additional record so that IESEQ is unique for each record within a USUBJID."
            },
            {
              "text": "IESPID",
              "name": "Sponsor-Defined Identifier",
              "@TYPE": "Char",
              "@LENGTH": "20",
              "@ROLE": "Identifier",
              "@CORE": "Perm",
              "@CONTROLLED": "",
              "description": "",
              "@ORIGIN": "Assigned",
              "@ORDER": "11",
              "@Comments": ""
            },
            {
              "text": "IETESTCD",
              "name": "Inclusion/Exclusion Criterion Short Name",
              "@TYPE": "Char",
              "@LENGTH": "8",
              "@ROLE": "Topic",
              "@CORE": "Req",
              "@CONTROLLED": "",
              "description": "",
              "@ORIGIN": "Assigned",
              "@ORDER": "20",
              "@Comments": ""
            },
            {
              "text": "IETEST",
              "name": "Inclusion/Exclusion Criterion",
              "@TYPE": "Char",
              "@LENGTH": "200",
              "@ROLE": "Synonym Qualifier",
              "@CORE": "Req",
              "@CONTROLLED": "",
              "description": "",
              "@ORIGIN": "Assigned",
              "@ORDER": "21",
              "@Comments": ""
            },
            {
              "text": "IECAT",
              "name": "Inclusion/Exclusion Category",
              "@TYPE": "Char",
              "@LENGTH": "200",
              "@ROLE": "Grouping Qualifier",
              "@CORE": "Req",
              "@CONTROLLED": "(IECAT)",
              "description": "",
              "@ORIGIN": "Assigned",
              "@ORDER": "24",
              "@Comments": ""
            },
            {
              "text": "IESCAT",
              "name": "Inclusion/Exclusion Subcategory",
              "@TYPE": "Char",
              "@LENGTH": "200",
              "@ROLE": "Grouping Qualifier",
              "@CORE": "Perm",
              "@CONTROLLED": "",
              "description": "",
              "@ORIGIN": "Assigned",
              "@ORDER": "25",
              "@Comments": ""
            },
            {
              "text": "IEORRES",
              "name": "I/E Criterion Original Result",
              "@TYPE": "Char",
              "@LENGTH": "1",
              "@ROLE": "Result Qualifier",
              "@CORE": "Req",
              "@CONTROLLED": "(NY)",
              "description": "",
              "@ORIGIN": "Assigned",
              "@ORDER": "28",
              "@Comments": ""
            },
            {
              "text": "IESTRESC",
              "name": "I/E Criterion Result in Std Format",
              "@TYPE": "Char",
              "@LENGTH": "1",
              "@ROLE": "Result Qualifier",
              "@CORE": "Req",
              "@CONTROLLED": "(NY)",
              "description": "",
              "@ORIGIN": "Derived",
              "@ORDER": "32",
              "@Comments": "Equal to IEORRES."
            },
            {
              "text": "VISITNUM",
              "name": "Visit Number",
              "@TYPE": "Num",
              "@LENGTH": "8",
              "@ROLE": "Timing",
              "@CORE": "Perm",
              "@CONTROLLED": "",
              "description": "",
              "@ORIGIN": "Assigned",
              "@ORDER": "100",
              "@Comments": ""
            },
            {
              "text": "VISIT",
              "name": "Visit Name",
              "@TYPE": "Char",
              "@LENGTH": "200",
              "@ROLE": "Timing",
              "@CORE": "Perm",
              "@CONTROLLED": "",
              "description": "",
              "@ORIGIN": "Assigned",
              "@ORDER": "101",
              "@Comments": ""
            },
            {
              "text": "VISITDY",
              "name": "Planned Study Day of Visit",
              "@TYPE": "Num",
              "@LENGTH": "8",
              "@ROLE": "Timing",
              "@CORE": "Perm",
              "@CONTROLLED": "",
              "description": "",
              "@ORIGIN": "Protocol",
              "@ORDER": "102",
              "@Comments": ""
            },
            {
              "text": "IEDTC",
              "name": "Date/Time of Collection",
              "@TYPE": "Char",
              "@LENGTH": "20",
              "@ROLE": "Timing",
              "@CORE": "Perm",
              "@CONTROLLED": "ISO 8601",
              "description": "",
              "@ORIGIN": "Assigned",
              "@ORDER": "105",
              "@Comments": ""
            },
            {
              "text": "IEDY",
              "name": "Study Day of Collection",
              "@TYPE": "Num",
              "@LENGTH": "8",
              "@ROLE": "Timing",
              "@CORE": "Perm",
              "@CONTROLLED": "",
              "description": "",
              "@ORIGIN": "Derived",
              "@ORDER": "108",
              "@Comments": "Relative study day between <IEDTC> and DM.RFSTDTC. Add 1 if the difference is greater than or equal to 0."
            }
          ]
        },
        {
          "name": "LB",
          "text": "Laboratory Test Results",
          "structure": "One record per analyte per planned time point number per time point reference per visit per subject",
          "class": "Findings",
          "description": "",
          "children": [
            {
              "text": "STUDYID",
              "name": "Study Identifier",
              "@TYPE": "Char",
              "@LENGTH": "20",
              "@ROLE": "Identifier",
              "@CORE": "Req",
              "@CONTROLLED": "",
              "description": "",
              "@ORIGIN": "Assigned",
              "@ORDER": "1",
              "@Comments": ""
            },
            {
              "text": "DOMAIN",
              "name": "Domain Abbreviation",
              "@TYPE": "Char",
              "@LENGTH": "2",
              "@ROLE": "Identifier",
              "@CORE": "Req",
              "@CONTROLLED": "",
              "description": "",
              "@ORIGIN": "Assigned",
              "@ORDER": "2",
              "@Comments": ""
            },
            {
              "text": "USUBJID",
              "name": "Unique Subject Identifier",
              "@TYPE": "Char",
              "@LENGTH": "25",
              "@ROLE": "Identifier",
              "@CORE": "Req",
              "@CONTROLLED": "",
              "description": "",
              "@ORIGIN": "Derived",
              "@ORDER": "4",
              "@Comments": "Concatenate STUDYID, SITEID and SUBJID, separated by \"-\"."
            },
            {
              "text": "LBSEQ",
              "name": "Sequence Number",
              "@TYPE": "Num",
              "@LENGTH": "8",
              "@ROLE": "Identifier",
              "@CORE": "Req",
              "@CONTROLLED": "",
              "description": "",
              "@ORIGIN": "Derived",
              "@ORDER": "8",
              "@Comments": "Sort by the key variables specified in the domain list. Assign LBSEQ=1 to the first record and increment LBSEQ by 1 for each additional record so that LBSEQ is unique for each record within a USUBJID."
            },
            {
              "text": "LBGRPID",
              "name": "Group ID",
              "@TYPE": "Char",
              "@LENGTH": "20",
              "@ROLE": "Identifier",
              "@CORE": "Perm",
              "@CONTROLLED": "",
              "description": "",
              "@ORIGIN": "Assigned",
              "@ORDER": "9",
              "@Comments": ""
            },
            {
              "text": "LBREFID",
              "name": "Specimen ID",
              "@TYPE": "Char",
              "@LENGTH": "20",
              "@ROLE": "Identifier",
              "@CORE": "Perm",
              "@CONTROLLED": "",
              "description": "",
              "@ORIGIN": "Assigned",
              "@ORDER": "10",
              "@Comments": ""
            },
            {
              "text": "LBSPID",
              "name": "Sponsor-Defined Identifier",
              "@TYPE": "Char",
              "@LENGTH": "20",
              "@ROLE": "Identifier",
              "@CORE": "Perm",
              "@CONTROLLED": "",
              "description": "",
              "@ORIGIN": "Assigned",
              "@ORDER": "11",
              "@Comments": ""
            },
            {
              "text": "LBTESTCD",
              "name": "Lab Test or Examination Short Name",
              "@TYPE": "Char",
              "@LENGTH": "8",
              "@ROLE": "Topic",
              "@CORE": "Req",
              "@CONTROLLED": "",
              "description": "",
              "@ORIGIN": "Assigned",
              "@ORDER": "20",
              "@Comments": ""
            },
            {
              "text": "LBTEST",
              "name": "Lab Test or Examination Name",
              "@TYPE": "Char",
              "@LENGTH": "40",
              "@ROLE": "Synonym Qualifier",
              "@CORE": "Req",
              "@CONTROLLED": "",
              "description": "",
              "@ORIGIN": "eDT",
              "@ORDER": "21",
              "@Comments": ""
            },
            {
              "text": "LBCAT",
              "name": "Category for Lab Test",
              "@TYPE": "Char",
              "@LENGTH": "200",
              "@ROLE": "Grouping Qualifier",
              "@CORE": "Exp",
              "@CONTROLLED": "",
              "description": "",
              "@ORIGIN": "eDT",
              "@ORDER": "24",
              "@Comments": ""
            },
            {
              "text": "LBSCAT",
              "name": "Subcategory for Lab Test",
              "@TYPE": "Char",
              "@LENGTH": "200",
              "@ROLE": "Grouping Qualifier",
              "@CORE": "Perm",
              "@CONTROLLED": "",
              "description": "",
              "@ORIGIN": "eDT",
              "@ORDER": "25",
              "@Comments": ""
            },
            {
              "text": "LBORRES",
              "name": "Result or Finding in Original Units",
              "@TYPE": "Char",
              "@LENGTH": "200",
              "@ROLE": "Result Qualifier",
              "@CORE": "Exp",
              "@CONTROLLED": "",
              "description": "",
              "@ORIGIN": "eDT",
              "@ORDER": "28",
              "@Comments": ""
            },
            {
              "text": "LBORRESU",
              "name": "Original Units",
              "@TYPE": "Char",
              "@LENGTH": "20",
              "@ROLE": "Variable Qualifier",
              "@CORE": "Exp",
              "@CONTROLLED": "(UNIT)",
              "description": "",
              "@ORIGIN": "eDT",
              "@ORDER": "29",
              "@Comments": ""
            },
            {
              "text": "LBORNRLO",
              "name": "Reference Range Lower Limit in Orig Unit",
              "@TYPE": "Char",
              "@LENGTH": "20",
              "@ROLE": "Variable Qualifier",
              "@CORE": "Exp",
              "@CONTROLLED": "",
              "description": "",
              "@ORIGIN": "eDT",
              "@ORDER": "30",
              "@Comments": ""
            },
            {
              "text": "LBORNRHI",
              "name": "Reference Range Upper Limit in Orig Unit",
              "@TYPE": "Char",
              "@LENGTH": "20",
              "@ROLE": "Variable Qualifier",
              "@CORE": "Exp",
              "@CONTROLLED": "",
              "description": "",
              "@ORIGIN": "eDT",
              "@ORDER": "31",
              "@Comments": ""
            },
            {
              "text": "LBSTRESC",
              "name": "Character Result/Finding in Std Format",
              "@TYPE": "Char",
              "@LENGTH": "200",
              "@ROLE": "Result Qualifier",
              "@CORE": "Exp",
              "@CONTROLLED": "",
              "description": "",
              "@ORIGIN": "Derived",
              "@ORDER": "32",
              "@Comments": "If data collected in non-standard units, then data is converted using standard conversion factors to standard units; else equal to LBORRES."
            },
            {
              "text": "LBSTRESN",
              "name": "Numeric Result/Finding in Standard Units",
              "@TYPE": "Num",
              "@LENGTH": "8",
              "@ROLE": "Result Qualifier",
              "@CORE": "Exp",
              "@CONTROLLED": "",
              "description": "",
              "@ORIGIN": "Derived",
              "@ORDER": "33",
              "@Comments": "Equal to numeric value of LBSTRESC"
            },
            {
              "text": "LBSTRESU",
              "name": "Standard Units",
              "@TYPE": "Char",
              "@LENGTH": "20",
              "@ROLE": "Variable Qualifier",
              "@CORE": "Exp",
              "@CONTROLLED": "(UNIT)",
              "description": "",
              "@ORIGIN": "Assigned",
              "@ORDER": "34",
              "@Comments": ""
            },
            {
              "text": "LBSTNRLO",
              "name": "Reference Range Lower Limit-Std Units",
              "@TYPE": "Num",
              "@LENGTH": "8",
              "@ROLE": "Variable Qualifier",
              "@CORE": "Exp",
              "@CONTROLLED": "",
              "description": "",
              "@ORIGIN": "Derived",
              "@ORDER": "35",
              "@Comments": "If data collected in non-standard units, then LBORNRLO is converted using standard conversion factors to standard units; else equal to numeric value of LBORNRLO."
            },
            {
              "text": "LBSTNRHI",
              "name": "Reference Range Upper Limit-Std Units",
              "@TYPE": "Num",
              "@LENGTH": "8",
              "@ROLE": "Variable Qualifier",
              "@CORE": "Exp",
              "@CONTROLLED": "",
              "description": "",
              "@ORIGIN": "Derived",
              "@ORDER": "36",
              "@Comments": "If data collected in non-standard units, then LBORNRHI is converted using standard conversion factors to standard units; else equal to numeric value of LBORNRHI."
            },
            {
              "text": "LBSTNRC",
              "name": "Reference Range for Char Rslt-Std Units",
              "@TYPE": "Char",
              "@LENGTH": "50",
              "@ROLE": "Variable Qualifier",
              "@CORE": "Perm",
              "@CONTROLLED": "",
              "description": "",
              "@ORIGIN": "Assigned",
              "@ORDER": "37",
              "@Comments": ""
            },
            {
              "text": "LBNRIND",
              "name": "Reference Range Indicator",
              "@TYPE": "Char",
              "@LENGTH": "10",
              "@ROLE": "Variable Qualifier",
              "@CORE": "Exp",
              "@CONTROLLED": "",
              "description": "",
              "@ORIGIN": "Derived",
              "@ORDER": "38",
              "@Comments": "Reference Range Indicator based upon standard results and ranges."
            },
            {
              "text": "LBSTAT",
              "name": "Completion Status",
              "@TYPE": "Char",
              "@LENGTH": "8",
              "@ROLE": "Record Qualifier",
              "@CORE": "Perm",
              "@CONTROLLED": "(ND)",
              "description": "",
              "@ORIGIN": "eDT",
              "@ORDER": "40",
              "@Comments": ""
            },
            {
              "text": "LBREASND",
              "name": "Reason Test Not Done",
              "@TYPE": "Char",
              "@LENGTH": "200",
              "@ROLE": "Record Qualifier",
              "@CORE": "Perm",
              "@CONTROLLED": "",
              "description": "",
              "@ORIGIN": "eDT",
              "@ORDER": "41",
              "@Comments": ""
            },
            {
              "text": "LBNAM",
              "name": "Vendor Name",
              "@TYPE": "Char",
              "@LENGTH": "200",
              "@ROLE": "Record Qualifier",
              "@CORE": "Perm",
              "@CONTROLLED": "",
              "description": "",
              "@ORIGIN": "eDT",
              "@ORDER": "43",
              "@Comments": ""
            },
            {
              "text": "LBLOINC",
              "name": "LOINC Code",
              "@TYPE": "Char",
              "@LENGTH": "50",
              "@ROLE": "Synonym Qualifier",
              "@CORE": "Perm",
              "@CONTROLLED": "",
              "description": "",
              "@ORIGIN": "eDT",
              "@ORDER": "44",
              "@Comments": ""
            },
            {
              "text": "LBSPEC",
              "name": "Specimen Type",
              "@TYPE": "Char",
              "@LENGTH": "20",
              "@ROLE": "Record Qualifier",
              "@CORE": "Perm",
              "@CONTROLLED": "",
              "description": "",
              "@ORIGIN": "eDT",
              "@ORDER": "45",
              "@Comments": ""
            },
            {
              "text": "LBSPCCND",
              "name": "Specimen Condition",
              "@TYPE": "Char",
              "@LENGTH": "50",
              "@ROLE": "Record Qualifier",
              "@CORE": "Perm",
              "@CONTROLLED": "",
              "description": "",
              "@ORIGIN": "eDT",
              "@ORDER": "47",
              "@Comments": ""
            },
            {
              "text": "LBMETHOD",
              "name": "Method of Test or Examination",
              "@TYPE": "Char",
              "@LENGTH": "200",
              "@ROLE": "Record Qualifier",
              "@CORE": "Perm",
              "@CONTROLLED": "",
              "description": "",
              "@ORIGIN": "eDT",
              "@ORDER": "53",
              "@Comments": ""
            },
            {
              "text": "LBBLFL",
              "name": "Baseline Flag",
              "@TYPE": "Char",
              "@LENGTH": "1",
              "@ROLE": "Record Qualifier",
              "@CORE": "Exp",
              "@CONTROLLED": "(NY)",
              "description": "",
              "@ORIGIN": "Derived",
              "@ORDER": "56",
              "@Comments": "Derivation of baseline: Safety subjects only: LBBLFL=Y for last non missing record on or before the first dose date (RFSTDTC)."
            },
            {
              "text": "LBFAST",
              "name": "Fasting Status",
              "@TYPE": "Char",
