<?xml version="1.0" encoding="UTF-8"?>
<SDTM VERSION="Astellas-3.1.3" ISADAM="False">
  <VARROLE>
    <ROLEITEM VALUE="Grouping Qualifier" />
    <ROLEITEM VALUE="Identifier" />
    <ROLEITEM VALUE="Qualifier" />
    <ROLEITEM VALUE="Record Qualifier" />
    <ROLEITEM VALUE="Result" />
    <ROLEITEM VALUE="Result Qualifier" />
    <ROLEITEM VALUE="Rule" />
    <ROLEITEM VALUE="Synonym Qualifier" />
    <ROLEITEM VALUE="Timing" />
    <ROLEITEM VALUE="Topic" />
    <ROLEITEM VALUE="Variable Qualifier" />
  </VARROLE>
  <VARTYPE>
    <TYPEITEM VALUE="Num" />
    <TYPEITEM VALUE="Char" />
  </VARTYPE>
  <VARCORE>
    <COREITEM VALUE="Req" />
    <COREITEM VALUE="Exp" />
    <COREITEM VALUE="Perm" />
  </VARCORE>
  <CLASS>
    <CLASSITEM NAME="Interventions" ORDER="2">
      <BASEVARIABLE NAME="--TRT" LABEL="Name of Treatment" TYPE="Char" LENGTH="200" ROLE="Topic" CORE="" DESCRIPTION="The topic for the intervention observation, usually the verbatim name of the treatment, drug, medicine, or therapy given during the dosing interval for the observation." ORDER="20" Origin="Assigned" Comments="" ControlledTerm="" />
      <BASEVARIABLE NAME="--MODIFY" LABEL="Modified Treatment Name" TYPE="Char" LENGTH="200" ROLE="Synonym Qualifier" CORE="" DESCRIPTION="If the value for --TRT is modified for coding purposes, then the modified text is placed here." ORDER="21" Origin="Assigned" Comments="" ControlledTerm="" />
      <BASEVARIABLE NAME="--DECOD" LABEL="Standardized Treatment Name" TYPE="Char" LENGTH="200" ROLE="Synonym Qualifier" CORE="" DESCRIPTION="Standardized or dictionary-Derived name of the topic variable, --TRT, or the modified topic variable (--MODIFY), if applicable. Equivalent to the generic drug name in WHO Drug, or a term in SNOMED, ICD9, or other published or sponsor-defined dictionaries." ORDER="22" Origin="Assigned" Comments="" ControlledTerm="" />
      <BASEVARIABLE NAME="--CAT" LABEL="Category" TYPE="Char" LENGTH="200" ROLE="Grouping Qualifier" CORE="" DESCRIPTION="Used to define a category of topic-variable values." ORDER="23" Origin="Assigned" Comments="" ControlledTerm="" />
      <BASEVARIABLE NAME="--SCAT" LABEL="Subcategory" TYPE="Char" LENGTH="200" ROLE="Grouping Qualifier" CORE="" DESCRIPTION="Used to define a further categorization of --CAT values." ORDER="24" Origin="Assigned" Comments="" ControlledTerm="" />
      <BASEVARIABLE NAME="--PRESP" LABEL="Pre-specified" TYPE="Char" LENGTH="1" ROLE="Record Qualifier" CORE="" DESCRIPTION="Used when a specific intervention is pre-specified on a CRF. Values should be &quot;Y&quot; or null." ORDER="25" Origin="Assigned" Comments="" ControlledTerm="" />
      <BASEVARIABLE NAME="--OCCUR" LABEL="Occurrence" TYPE="Char" LENGTH="1" ROLE="Record Qualifier" CORE="" DESCRIPTION="Used to record whether a pre-specified intervention occurred when information about the occurrence of a specific intervention is solicited." ORDER="26" Origin="Assigned" Comments="" ControlledTerm="" />
      <BASEVARIABLE NAME="--STAT" LABEL="Completion Status" TYPE="Char" LENGTH="8" ROLE="Record Qualifier" CORE="" DESCRIPTION="Used to indicate when a question about the occurrence of a pre-specified intervention was not answered. Should be null or have a value of NOT DONE." ORDER="27" Origin="Assigned" Comments="" ControlledTerm="" />
      <BASEVARIABLE NAME="--REASND" LABEL="Reason Not Done" TYPE="Char" LENGTH="200" ROLE="Record Qualifier" CORE="" DESCRIPTION="Reason not done. Used in conjunction with --STAT when value is NOT DONE." ORDER="28" Origin="Assigned" Comments="" ControlledTerm="" />
      <BASEVARIABLE NAME="--INDC" LABEL="Indication" TYPE="Char" LENGTH="200" ROLE="Record Qualifier" CORE="" DESCRIPTION="Denotes the indication for the intervention (e.g., why the therapy was taken or administered)." ORDER="29" Origin="Assigned" Comments="" ControlledTerm="" />
      <BASEVARIABLE NAME="--CLAS" LABEL="Class" TYPE="Char" LENGTH="200" ROLE="Variable Qualifier" CORE="" DESCRIPTION="Class for a medication or treatment, often obtained from a coding dictionary." ORDER="30" Origin="Assigned" Comments="" ControlledTerm="" />
      <BASEVARIABLE NAME="--CLASCD" LABEL="Class Code" TYPE="Char" LENGTH="8" ROLE="Variable Qualifier" CORE="" DESCRIPTION="Used to represent code for --CLAS." ORDER="31" Origin="Assigned" Comments="" ControlledTerm="" />
      <BASEVARIABLE NAME="--DOSE" LABEL="Dose" TYPE="Num" LENGTH="8" ROLE="Record Qualifier" CORE="" DESCRIPTION="Amount of --TRT given. Not populated when --DOSTXT is populated." ORDER="32" Origin="Assigned" Comments="" ControlledTerm="" />
      <BASEVARIABLE NAME="--DOSTXT" LABEL="Dose Description" TYPE="Char" LENGTH="200" ROLE="Record Qualifier" CORE="" DESCRIPTION="Dosing information collected in text form. Examples: &lt;1 per day, 200-400. Not populated when --DOSE is populated." ORDER="33" Origin="Assigned" Comments="" ControlledTerm="" />
      <BASEVARIABLE NAME="--DOSU" LABEL="Dose Units" TYPE="Char" LENGTH="20" ROLE="Variable Qualifier" CORE="" DESCRIPTION="Units for --DOSE, --DOSTOT, or --DOSTXT (Examples: ng, mg, mg/kg)." ORDER="34" Origin="Assigned" Comments="" ControlledTerm="" />
      <BASEVARIABLE NAME="--DOSFRM" LABEL="Dose Form" TYPE="Char" LENGTH="200" ROLE="Record Qualifier" CORE="" DESCRIPTION="Dose form for the treatment. Examples: TABLET, CAPSULE." ORDER="35" Origin="Assigned" Comments="" ControlledTerm="" />
      <BASEVARIABLE NAME="--DOSFRQ" LABEL="Dosing Frequency per Interval" TYPE="Char" LENGTH="50" ROLE="Variable Qualifier" CORE="" DESCRIPTION="Usually expressed as the number of doses given per a specific interval. Examples: QD, BID, TID, QID." ORDER="36" Origin="Assigned" Comments="" ControlledTerm="" />
      <BASEVARIABLE NAME="--DOSTOT" LABEL="Total Daily Dose" TYPE="Num" LENGTH="8" ROLE="Record Qualifier" CORE="" DESCRIPTION="Total daily dose of --TRT using the units in --DOSU. Used when dosing is collected as Total Daily Dose." ORDER="37" Origin="Derived" Comments="Derived based on --DOSE and --DOSFRQ" ControlledTerm="" />
      <BASEVARIABLE NAME="--DOSRGM" LABEL="Intended Dose Regimen" TYPE="Char" LENGTH="50" ROLE="Variable Qualifier" CORE="" DESCRIPTION="Text description of the (intended) schedule or regimen for the Intervention. Examples: TWO WEEKS ON, TWO WEEKS OFF." ORDER="38" Origin="Assigned" Comments="" ControlledTerm="" />
      <BASEVARIABLE NAME="--ROUTE" LABEL="Route of Administration" TYPE="Char" LENGTH="50" ROLE="Variable Qualifier" CORE="" DESCRIPTION="Route of administration for the intervention. Examples: ORAL, INTRAVENOUS." ORDER="39" Origin="Assigned" Comments="" ControlledTerm="" />
      <BASEVARIABLE NAME="--LOT" LABEL="Lot Number" TYPE="Char" LENGTH="50" ROLE="Record Qualifier" CORE="" DESCRIPTION="Lot number for the intervention described in --TRT." ORDER="40" Origin="Assigned" Comments="" ControlledTerm="" />
      <BASEVARIABLE NAME="--LOC" LABEL="Location of Dose Administration" TYPE="Char" LENGTH="200" ROLE="Record Qualifier" CORE="" DESCRIPTION="Anatomical location of an intervention, such as an injection site. Example: RIGHT ARM for an injection." ORDER="41" Origin="Assigned" Comments="" ControlledTerm="" />
      <BASEVARIABLE NAME="--TRTV" LABEL="Treatment Vehicle" TYPE="Char" LENGTH="200" ROLE="Record Qualifier" CORE="" DESCRIPTION="Vehicle for administration of treatment, such as a liquid in which the treatment drug is dissolved. Example: SALINE." ORDER="42" Origin="Assigned" Comments="" ControlledTerm="" />
      <BASEVARIABLE NAME="--VAMT" LABEL="Treatment Vehicle Amount" TYPE="Num" LENGTH="8" ROLE="Variable Qualifier" CORE="" DESCRIPTION="Amount of the treatment vehicle administered or given." ORDER="43" Origin="Assigned" Comments="" ControlledTerm="" />
      <BASEVARIABLE NAME="--VAMTU" LABEL="Treatment Vehicle Amount Units" TYPE="Char" LENGTH="20" ROLE="Variable Qualifier" CORE="" DESCRIPTION="Units for the treatment vehicle. Examples: mL, mg." ORDER="44" Origin="Assigned" Comments="" ControlledTerm="" />
      <BASEVARIABLE NAME="--ADJ" LABEL="Reason for Dose Adjustment" TYPE="Char" LENGTH="200" ROLE="Record Qualifier" CORE="" DESCRIPTION="Describes reason or explanation of why a dose is adjusted. Examples ADVERSE EVENT, INSUFFICIENT RESPONSE, NON-MEDICAL REASON." ORDER="45" Origin="Assigned" Comments="" ControlledTerm="" />
    </CLASSITEM>
    <CLASSITEM NAME="Events" ORDER="2">
      <BASEVARIABLE NAME="--TERM" LABEL="Reported Term" TYPE="Char" LENGTH="200" ROLE="Topic" CORE="" DESCRIPTION="Topic variable for an event observation, which is the verbatim or pre-specified name of the event." ORDER="20" Origin="Assigned" Comments="" ControlledTerm="" />
      <BASEVARIABLE NAME="--MODIFY" LABEL="Modified Reported Term" TYPE="Char" LENGTH="200" ROLE="Synonym Qualifier" CORE="" DESCRIPTION="If the value for --TERM is modified for coding purposes, then the modified text is placed here." ORDER="21" Origin="Assigned" Comments="" ControlledTerm="" />
      <BASEVARIABLE NAME="--LLT" LABEL="Lowest Level Term" TYPE="Char" LENGTH="200" ROLE="Variable Qualifier" CORE="" DESCRIPTION="MedDRA Lowest Level Term." ORDER="22" Origin="Assigned" Comments="MedDRA version 13.1" ControlledTerm="" />
      <BASEVARIABLE NAME="--LLTCD" LABEL="Lowest Level Term Code" TYPE="Num" LENGTH="8" ROLE="Variable Qualifier" CORE="" DESCRIPTION="MedDRA Lowest Level Term code." ORDER="23" Origin="Assigned" Comments="MedDRA version 13.1" ControlledTerm="" />
      <BASEVARIABLE NAME="--DECOD" LABEL="Dictionary-Derived Term" TYPE="Char" LENGTH="200" ROLE="Synonym Qualifier" CORE="" DESCRIPTION="Dictionary or sponsor-defined Derived text description of the topic variable, --TERM, or the modified topic variable (--MODIFY), if applicable. Equivalent to the Preferred Term (PT in MedDRA)." ORDER="24" Origin="Assigned" Comments="MedDRA version 13.1" ControlledTerm="" />
      <BASEVARIABLE NAME="--PTCD" LABEL="Preferred Term Code" TYPE="Num" LENGTH="8" ROLE="Variable Qualifier" CORE="" DESCRIPTION="MedDRA Preferred Term code." ORDER="25" Origin="Assigned" Comments="MedDRA version 13.1" ControlledTerm="" />
      <BASEVARIABLE NAME="--HLT" LABEL="High Level Term" TYPE="Char" LENGTH="200" ROLE="Variable Qualifier" CORE="" DESCRIPTION="MedDRA High Level Term from the primary path." ORDER="26" Origin="Assigned" Comments="MedDRA version 13.1" ControlledTerm="" />
      <BASEVARIABLE NAME="--HLTCD" LABEL="High Level Term Code" TYPE="Num" LENGTH="8" ROLE="Variable Qualifier" CORE="" DESCRIPTION="MedDRA High Level Term code from the primary path." ORDER="27" Origin="Assigned" Comments="MedDRA version 13.1" ControlledTerm="" />
      <BASEVARIABLE NAME="--HLGT" LABEL="High Level Group Term" TYPE="Char" LENGTH="200" ROLE="Variable Qualifier" CORE="" DESCRIPTION="MedDRA High Level Group Term from the primary path." ORDER="28" Origin="Assigned" Comments="MedDRA version 13.1" ControlledTerm="" />
      <BASEVARIABLE NAME="--HLGTCD" LABEL="High Level Group Term Code" TYPE="Num" LENGTH="8" ROLE="Variable Qualifier" CORE="" DESCRIPTION="MedDRA High Level Group Term code from the primary path." ORDER="29" Origin="Assigned" Comments="MedDRA version 13.1" ControlledTerm="" />
      <BASEVARIABLE NAME="--CAT" LABEL="Category" TYPE="Char" LENGTH="200" ROLE="Grouping Qualifier" CORE="" DESCRIPTION="Used to define a category of topic-variable values." ORDER="30" Origin="Assigned" Comments="" ControlledTerm="" />
      <BASEVARIABLE NAME="--SCAT" LABEL="Subcategory" TYPE="Char" LENGTH="200" ROLE="Grouping Qualifier" CORE="" DESCRIPTION="Used to define a further categorization of --CAT values." ORDER="31" Origin="Assigned" Comments="" ControlledTerm="" />
      <BASEVARIABLE NAME="--PRESP" LABEL="Pre-specified" TYPE="Char" LENGTH="1" ROLE="Record Qualifier" CORE="" DESCRIPTION="Used to indicate whether the event described by --TERM was pre-specified on a CRF. Value is Y for pre-specified events, null for spontaneously reported events." ORDER="32" Origin="Assigned" Comments="" ControlledTerm="" />
      <BASEVARIABLE NAME="--OCCUR" LABEL="Occurrence" TYPE="Char" LENGTH="1" ROLE="Record Qualifier" CORE="" DESCRIPTION="Used to record whether a pre-specified event occurred when information about the occurrence of a specific event is solicited." ORDER="33" Origin="Assigned" Comments="" ControlledTerm="" />
      <BASEVARIABLE NAME="--STAT" LABEL="Completion Status" TYPE="Char" LENGTH="8" ROLE="Record Qualifier" CORE="" DESCRIPTION="Used to indicate when a question about the occurrence of a pre-specified event was not answered. Should be null or have a value of NOT DONE." ORDER="34" Origin="Assigned" Comments="" ControlledTerm="" />
      <BASEVARIABLE NAME="--REASND" LABEL="Reason Not Done" TYPE="Char" LENGTH="200" ROLE="Record Qualifier" CORE="" DESCRIPTION="Reason not done. Used in conjunction with --STAT when its value is NOT DONE." ORDER="35" Origin="Assigned" Comments="" ControlledTerm="" />
      <BASEVARIABLE NAME="--BODSYS" LABEL="Body System or Organ Class" TYPE="Char" LENGTH="200" ROLE="Record Qualifier" CORE="" DESCRIPTION="Body system or system organ class from a standard hierarchy (e.g. MedDRA) associated with an event. Example: GASTROINTESTINAL DISORDERS." ORDER="36" Origin="Assigned" Comments="MedDRA version 13.1" ControlledTerm="" />
      <BASEVARIABLE NAME="--BDSYCD" LABEL="Body System or Organ Class Code" TYPE="Num" LENGTH="8" ROLE="Variable Qualifier" CORE="" DESCRIPTION="MedDRA System Organ Class code used for analysis." ORDER="37" Origin="Assigned" Comments="MedDRA version 13.1" ControlledTerm="" />
      <BASEVARIABLE NAME="--SOC" LABEL="Primary System Organ Class" TYPE="Char" LENGTH="200" ROLE="Variable Qualifier" CORE="" DESCRIPTION="MedDRA primary System Organ Class." ORDER="38" Origin="Assigned" Comments="MedDRA version 13.1" ControlledTerm="" />
      <BASEVARIABLE NAME="--SOCCD" LABEL="Primary System Organ Class Code" TYPE="Num" LENGTH="8" ROLE="Variable Qualifier" CORE="" DESCRIPTION="MedDRA primary System Organ Class code." ORDER="39" Origin="Assigned" Comments="MedDRA version 13.1" ControlledTerm="" />
      <BASEVARIABLE NAME="--LOC" LABEL="Location of Event" TYPE="Char" LENGTH="200" ROLE="Record Qualifier" CORE="" DESCRIPTION="Describes anatomical location relevant for the event. Example: LEFT ARM for skin rash." ORDER="40" Origin="Assigned" Comments="" ControlledTerm="" />
      <BASEVARIABLE NAME="--SEV" LABEL="Severity/Intensity" TYPE="Char" LENGTH="8" ROLE="Record Qualifier" CORE="" DESCRIPTION="The severity or intensity of the event. Examples: MILD, MODERATE, SEVERE." ORDER="41" Origin="Assigned" Comments="" ControlledTerm="" />
      <BASEVARIABLE NAME="--SER" LABEL="Serious Event" TYPE="Char" LENGTH="1" ROLE="Record Qualifier" CORE="" DESCRIPTION="Is this is a serious event? Valid values are &quot;Y&quot; and &quot;N&quot;." ORDER="42" Origin="Assigned" Comments="" ControlledTerm="" />
      <BASEVARIABLE NAME="--ACN" LABEL="Action Taken with Study Treatment" TYPE="Char" LENGTH="200" ROLE="Record Qualifier" CORE="" DESCRIPTION="Describes changes made to the study treatment as a result of the event. Examples: DOSE INCREASED, DOSE NOT CHANGED." ORDER="43" Origin="Assigned" Comments="" ControlledTerm="" />
      <BASEVARIABLE NAME="--ACNOTH" LABEL="Other Action Taken" TYPE="Char" LENGTH="200" ROLE="Record Qualifier" CORE="" DESCRIPTION="Describes other actions taken as a result of the event that are unrelated to dose adjustments of study treatment." ORDER="44" Origin="Assigned" Comments="" ControlledTerm="" />
      <BASEVARIABLE NAME="--REL" LABEL="Causality" TYPE="Char" LENGTH="50" ROLE="Record Qualifier" CORE="" DESCRIPTION="Records the investigator's opinion as to the causality of the event to the treatment. ICH E2A and E2B examples include NOT RELATED, UNLIKELY RELATED, POSSIBLY RELATED, RELATED." ORDER="45" Origin="Assigned" Comments="" ControlledTerm="" />
      <BASEVARIABLE NAME="--RELNST" LABEL="Relationship to Non-Study Treatment" TYPE="Char" LENGTH="200" ROLE="Record Qualifier" CORE="" DESCRIPTION="An opinion as to whether the event may have been due to a treatment other than study drug. Example: &quot;MORE LIKELY RELATED TO ASPIRIN USE.&quot;" ORDER="46" Origin="Assigned" Comments="" ControlledTerm="" />
      <BASEVARIABLE NAME="--PATT" LABEL="Pattern of Event" TYPE="Char" LENGTH="50" ROLE="Record Qualifier" CORE="" DESCRIPTION="Used to indicate the pattern of the event over time. Examples: INTERMITTENT, CONTINUOUS, SINGLE EVENT." ORDER="47" Origin="Assigned" Comments="" ControlledTerm="" />
      <BASEVARIABLE NAME="--OUT" LABEL="Outcome of Event" TYPE="Char" LENGTH="200" ROLE="Record Qualifier" CORE="" DESCRIPTION="Description of the outcome of an event. Examples: RECOVERED/RESOLVED, FATAL." ORDER="48" Origin="Assigned" Comments="" ControlledTerm="" />
      <BASEVARIABLE NAME="--SCAN" LABEL="Involves Cancer" TYPE="Char" LENGTH="1" ROLE="Record Qualifier" CORE="" DESCRIPTION="Was the event associated with the development of cancer? Valid values are &quot;Y&quot; and &quot;N&quot;." ORDER="49" Origin="Assigned" Comments="" ControlledTerm="" />
      <BASEVARIABLE NAME="--SCONG" LABEL="Congenital Anomaly or Birth Defect" TYPE="Char" LENGTH="1" ROLE="Record Qualifier" CORE="" DESCRIPTION="Was the event associated with congenital anomaly or birth defect? Valid values are &quot;Y&quot; and &quot;N&quot;." ORDER="50" Origin="Assigned" Comments="" ControlledTerm="" />
      <BASEVARIABLE NAME="--SDISAB" LABEL="Persist or Signif Disability/Incapacity" TYPE="Char" LENGTH="1" ROLE="Record Qualifier" CORE="" DESCRIPTION="Did the event result in persistent or significant disability/incapacity? Valid values are &quot;Y&quot; and &quot;N&quot;." ORDER="51" Origin="Assigned" Comments="" ControlledTerm="" />
      <BASEVARIABLE NAME="--SDTH" LABEL="Results in Death" TYPE="Char" LENGTH="1" ROLE="Record Qualifier" CORE="" DESCRIPTION="Did the event result in death? Valid values are &quot;Y&quot; and &quot;N&quot;." ORDER="52" Origin="Assigned" Comments="" ControlledTerm="" />
      <BASEVARIABLE NAME="--SHOSP" LABEL="Requires or Prolongs Hospitalization" TYPE="Char" LENGTH="1" ROLE="Record Qualifier" CORE="" DESCRIPTION="Did the event require or prolong hospitalization? Valid values are &quot;Y&quot; and &quot;N&quot;." ORDER="53" Origin="Assigned" Comments="" ControlledTerm="" />
      <BASEVARIABLE NAME="--SLIFE" LABEL="Is Life Threatening" TYPE="Char" LENGTH="1" ROLE="Record Qualifier" CORE="" DESCRIPTION="Was the event life threatening? Valid values are &quot;Y&quot; and &quot;N&quot;." ORDER="54" Origin="Assigned" Comments="" ControlledTerm="" />
      <BASEVARIABLE NAME="--SOD" LABEL="Occurred with Overdose" TYPE="Char" LENGTH="1" ROLE="Record Qualifier" CORE="" DESCRIPTION="Did the event occur with an overdose? Valid values are &quot;Y&quot; and &quot;N&quot;." ORDER="55" Origin="Assigned" Comments="" ControlledTerm="" />
      <BASEVARIABLE NAME="--SMIE" LABEL="Other Medically Important Serious Event" TYPE="Char" LENGTH="1" ROLE="Record Qualifier" CORE="" DESCRIPTION="Do additional categories for seriousness apply? Valid values are &quot;Y&quot; and &quot;N&quot;." ORDER="56" Origin="Assigned" Comments="" ControlledTerm="" />
      <BASEVARIABLE NAME="--CONTRT" LABEL="Concomitant or Additional Trtmnt Given" TYPE="Char" LENGTH="1" ROLE="Record Qualifier" CORE="" DESCRIPTION="Was another treatment given because of the occurrence of the event? Valid values are &quot;Y&quot; and &quot;N&quot;." ORDER="57" Origin="Assigned" Comments="" ControlledTerm="" />
      <BASEVARIABLE NAME="--TOX" LABEL="Toxicity" TYPE="Char" LENGTH="50" ROLE="Variable Qualifier" CORE="" DESCRIPTION="Description of toxicity quantified by --TOXGR such as NCI CTCAE Short Name. Examples: HYPERCALCEMIA, HYPOCALCEMIA. Sponsor should specify which scale and version is used in the Sponsor Comments column of the Define.xml document." ORDER="58" Origin="Derived" Comments="Derived based on AECTC V4.0" ControlledTerm="" />
      <BASEVARIABLE NAME="--TOXGR" LABEL="Toxicity Grade" TYPE="Char" LENGTH="1" ROLE="Record Qualifier" CORE="" DESCRIPTION="Records toxicity grade using a standard toxicity scale (such as the NCI CTCAE). Sponsor should specify which scale and version is used in the Sponsor Comments column of the Define.xml document." ORDER="59" Origin="Derived" Comments="Derived based on AECTC V4.0" ControlledTerm="" />
    </CLASSITEM>
    <CLASSITEM NAME="Findings" ORDER="2">
      <BASEVARIABLE NAME="--TESTCD" LABEL="Short Name of Measurement, Test or Exam" TYPE="Char" LENGTH="8" ROLE="Topic" CORE="" DESCRIPTION="Short character value for --TEST used as a column name when converting a dataset from a vertical format to a horizontal format. The short value can be up to 8 characters. Examples: PLAT, SYSBP, RRMIN, EYEEXAM." ORDER="20" Origin="Assigned" Comments="" ControlledTerm="" />
      <BASEVARIABLE NAME="--TEST" LABEL="Name of Measurement, Test or Exam" TYPE="Char" LENGTH="40" ROLE="Synonym Qualifier" CORE="" DESCRIPTION="Long name For --TESTCD. Examples: Platelet, Systolic Blood Pressure, Summary (Min) RR Duration, Eye Examination." ORDER="21" Origin="Assigned" Comments="" ControlledTerm="" />
      <BASEVARIABLE NAME="--MODIFY" LABEL="Modified Term" TYPE="Char" LENGTH="200" ROLE="Synonym Qualifier" CORE="" DESCRIPTION="If the value of --ORRES is modified for coding purposes, then the modified text is placed here." ORDER="22" Origin="Assigned" Comments="" ControlledTerm="" />
      <BASEVARIABLE NAME="--OBJ" LABEL="Object of the Observation" TYPE="Char" LENGTH="200" ROLE="Record Qualifier" CORE="" DESCRIPTION="Used in domains modeled as Findings About Events or Findings About Interventions. Describes the event or intervention whose property is being measured in --TESTCD/--TEST. Example: an event of vomiting which has findings, where --OBJ = &quot;VOMIT&quot; and the volume of VOMIT is being measured where --TESTCD = &quot;VOLUME&quot;." ORDER="23" Origin="Assigned" Comments="" ControlledTerm="" />
      <BASEVARIABLE NAME="--CAT" LABEL="Category" TYPE="Char" LENGTH="200" ROLE="Grouping Qualifier" CORE="" DESCRIPTION="Used to define a category of topic-variable values. Examples: HEMATOLOGY, URINALYSIS, CHEMISTRY, HAMILTON DEPRESSION SCALE, SF36." ORDER="24" Origin="Assigned" Comments="" ControlledTerm="" />
      <BASEVARIABLE NAME="--SCAT" LABEL="Subcategory" TYPE="Char" LENGTH="200" ROLE="Grouping Qualifier" CORE="" DESCRIPTION="Used to define a further categorization of --CAT values. Example: DIFFERENTIAL." ORDER="25" Origin="Assigned" Comments="" ControlledTerm="" />
      <BASEVARIABLE NAME="--POS" LABEL="Position of Subject During Observation" TYPE="Char" LENGTH="50" ROLE="Record Qualifier" CORE="" DESCRIPTION="Position of the subject during a measurement or examination. Examples: SUPINE, STANDING, SITTING." ORDER="26" Origin="Assigned" Comments="" ControlledTerm="" />
      <BASEVARIABLE NAME="--BODSYS" LABEL="Body System or Organ Class" TYPE="Char" LENGTH="200" ROLE="Record Qualifier" CORE="" DESCRIPTION="Body System or Organ Class that is involved for a finding from the standard hierarchy for dictionary-coded results. Example: MedDRA SOC." ORDER="27" Origin="Assigned" Comments="" ControlledTerm="" />
      <BASEVARIABLE NAME="--ORRES" LABEL="Result or Finding in Original Units" TYPE="Char" LENGTH="200" ROLE="Result Qualifier" CORE="" DESCRIPTION="Result of the measurement or finding as originally received or collected. Examples: 120, &lt;1, POS." ORDER="28" Origin="Assigned" Comments="" ControlledTerm="" />
      <BASEVARIABLE NAME="--ORRESU" LABEL="Original Units" TYPE="Char" LENGTH="20" ROLE="Variable Qualifier" CORE="" DESCRIPTION="Unit for --ORRES. Examples: IN, LB, kg/L." ORDER="29" Origin="Assigned" Comments="" ControlledTerm="" />
      <BASEVARIABLE NAME="--ORNRLO" LABEL="Normal Range Lower Limit-Original Units" TYPE="Char" LENGTH="20" ROLE="Variable Qualifier" CORE="" DESCRIPTION="Lower end of normal range or reference range for results stored in --ORRES." ORDER="30" Origin="Assigned" Comments="" ControlledTerm="" />
      <BASEVARIABLE NAME="--ORNRHI" LABEL="Normal Range Upper Limit-Original Units" TYPE="Char" LENGTH="20" ROLE="Variable Qualifier" CORE="" DESCRIPTION="Upper end of normal range or reference range for results stored in --ORRES." ORDER="31" Origin="Assigned" Comments="" ControlledTerm="" />
      <BASEVARIABLE NAME="--STRESC" LABEL="Character Result/Finding in Std Format" TYPE="Char" LENGTH="200" ROLE="Result Qualifier" CORE="" DESCRIPTION="Contains the result value for all findings, copied or Derived from --ORRES in a standard format or in standard units. --STRESC should store all results or findings in character format; if results are numeric, they should also be stored in numeric format in --STRESN. For example, if various tests have results &quot;NONE&quot;, &quot;NEG&quot;, and &quot;NEGATIVE&quot; in --ORRES and these results effectively have the same meaning, they could be represented in standard format in --STRESC as &quot;NEGATIVE&quot;." ORDER="32" Origin="Derived" Comments="If data collected in non-standard units, then data is converted using standard conversion factors to standard units; else equal to --ORRES." ControlledTerm="" />
      <BASEVARIABLE NAME="--STRESN" LABEL="Numeric Result/Finding in Standard Units" TYPE="Num" LENGTH="8" ROLE="Result Qualifier" CORE="" DESCRIPTION="Used for continuous or numeric results or findings in standard format; copied in numeric format from --STRESC. --STRESN should store all numeric test results or findings." ORDER="33" Origin="Derived" Comments="Equal to numeric value of --STRESC" ControlledTerm="" />
      <BASEVARIABLE NAME="--STRESU" LABEL="Standard Units" TYPE="Char" LENGTH="20" ROLE="Variable Qualifier" CORE="" DESCRIPTION="Standardized units used for --STRESC and --STRESN. Example: mol/L." ORDER="34" Origin="Assigned" Comments="" ControlledTerm="" />
      <BASEVARIABLE NAME="--STNRLO" LABEL="Normal Range Lower Limit-Standard Units" TYPE="Num" LENGTH="8" ROLE="Variable Qualifier" CORE="" DESCRIPTION="Lower end of normal range or reference range for standardized results (e.g., --STRESC, --STRESN) represented in standardized units (--STRESU)." ORDER="35" Origin="Derived" Comments="If data collected in non-standard units, then --ORNRLO is converted using standard conversion factors to standard units; else equal to numeric value of --ORNRLO." ControlledTerm="" />
      <BASEVARIABLE NAME="--STNRHI" LABEL="Normal Range Upper Limit-Standard Units" TYPE="Num" LENGTH="8" ROLE="Variable Qualifier" CORE="" DESCRIPTION="Upper end of normal range or reference range for standardized results (e.g., --STRESC, --STRESN) represented in standardized units (--STRESU)." ORDER="36" Origin="Derived" Comments="If data collected in non-standard units, then --ORNRHI is converted using standard conversion factors to standard units; else equal to numeric value of --ORNRHI." ControlledTerm="" />
      <BASEVARIABLE NAME="--STNRC" LABEL="Reference Range for Char Rslt-Std Units" TYPE="Char" LENGTH="50" ROLE="Variable Qualifier" CORE="" DESCRIPTION="For normal range or reference range values for results stored in --STRESC that are character in ordinal or categorical scale. Example: Negative to Trace." ORDER="37" Origin="Assigned" Comments="" ControlledTerm="" />
      <BASEVARIABLE NAME="--NRIND" LABEL="Normal/Reference Range Indicator" TYPE="Char" LENGTH="10" ROLE="Variable Qualifier" CORE="" DESCRIPTION="Used to indicate the value is outside the normal range or reference range. May be defined by --ORNRLO and --ORNRHI or other objective criteria. Examples: Y, N; HIGH, LOW; NORMAL; ABNORMAL." ORDER="38" Origin="Derived" Comments="Reference Range Indicator based upon standard results and ranges." ControlledTerm="" />
      <BASEVARIABLE NAME="--RESCAT" LABEL="Result Category" TYPE="Char" LENGTH="200" ROLE="Variable Qualifier" CORE="" DESCRIPTION="Used to categorize the result of a finding. Example: MALIGNANT or BENIGN for tumor findings." ORDER="39" Origin="Assigned" Comments="" ControlledTerm="" />
      <BASEVARIABLE NAME="--STAT" LABEL="Completion Status" TYPE="Char" LENGTH="8" ROLE="Record Qualifier" CORE="" DESCRIPTION="Used to indicate that a question was not asked or a test was not done, or a test was attempted but did not generate a result. Should be null or have a value of NOT DONE." ORDER="40" Origin="Assigned" Comments="" ControlledTerm="" />
      <BASEVARIABLE NAME="--REASND" LABEL="Reason Not Done" TYPE="Char" LENGTH="200" ROLE="Record Qualifier" CORE="" DESCRIPTION="Reason not done. Used in conjunction with --STAT when value is NOT DONE." ORDER="41" Origin="Assigned" Comments="" ControlledTerm="" />
      <BASEVARIABLE NAME="--XFN" LABEL="External File Path" TYPE="Char" LENGTH="200" ROLE="Record Qualifier" CORE="" DESCRIPTION="Filename for an external file, such as one for an ECG waveform or a medical image." ORDER="42" Origin="Assigned" Comments="" ControlledTerm="" />
      <BASEVARIABLE NAME="--NAM" LABEL="Laboratory/Vendor Name" TYPE="Char" LENGTH="200" ROLE="Record Qualifier" CORE="" DESCRIPTION="Name or identifier of the vendor (e.g., laboratory) that provided the test results." ORDER="43" Origin="Assigned" Comments="" ControlledTerm="" />
      <BASEVARIABLE NAME="--LOINC" LABEL="LOINC Code" TYPE="Char" LENGTH="50" ROLE="Synonym Qualifier" CORE="" DESCRIPTION="Logical Observation Identifiers Names and Codes (LOINC) code for the topic variable such as a lab test." ORDER="44" Origin="Assigned" Comments="" ControlledTerm="" />
      <BASEVARIABLE NAME="--SPEC" LABEL="Specimen Material Type" TYPE="Char" LENGTH="20" ROLE="Record Qualifier" CORE="" DESCRIPTION="Defines the type of specimen used for a measurement. Examples: SERUM, PLASMA, URINE." ORDER="45" Origin="Assigned" Comments="" ControlledTerm="" />
      <BASEVARIABLE NAME="--ANTREG" LABEL="Anatomical Region" TYPE="Char" LENGTH="100" ROLE="Record Qualifier" CORE="" DESCRIPTION="Defines the specific anatomical or biological region of a tissue, organ specimen or the region from which the specimen is obtained, as defined in the Protocol, such as a section or part of what is described in the --SPEC variable. Examples: CORTEX,MEDULLA, MUCOSA" ORDER="46" Origin="Assigned" Comments="" ControlledTerm="" />
      <BASEVARIABLE NAME="--SPCCND" LABEL="Specimen Condition" TYPE="Char" LENGTH="50" ROLE="Record Qualifier" CORE="" DESCRIPTION="Defines the condition of the specimen. Example: CLOUDY." ORDER="47" Origin="Assigned" Comments="" ControlledTerm="" />
      <BASEVARIABLE NAME="--SPCUFL" LABEL="Specimen Usability for the Test" TYPE="Char" LENGTH="1" ROLE="Record Qualifier" CORE="" DESCRIPTION="Describes the usability of the specimen for the test. The value will be N if the specimen is not usable, and null if the specimenis usable." ORDER="48" Origin="Assigned" Comments="" ControlledTerm="" />
      <BASEVARIABLE NAME="--LOC" LABEL="Location Used for the Measurement" TYPE="Char" LENGTH="200" ROLE="Record Qualifier" CORE="" DESCRIPTION="Location relevant to the collection of the measurement. Example: RECTAL for temperature, LEFT ARM for blood pressure or V1 for an ECG lead." ORDER="49" Origin="Assigned" Comments="" ControlledTerm="" />
      <BASEVARIABLE NAME="--LAT" LABEL="Laterality" TYPE="Char" LENGTH="10" ROLE="Variable Qualifier" CORE="" DESCRIPTION="Qualifier for anatomical location or specimen further detailing laterality" ORDER="50" Origin="Assigned" Comments="" ControlledTerm="" />
      <BASEVARIABLE NAME="--DIR" LABEL="Directionality" TYPE="Char" LENGTH="20" ROLE="Variable Qualifier" CORE="" DESCRIPTION="Qualifier for anatomical location or specimen further detailing directionality" ORDER="51" Origin="Assigned" Comments="" ControlledTerm="" />
      <BASEVARIABLE NAME="--PORTOT" LABEL="Portion or Totality" TYPE="Char" LENGTH="100" ROLE="Variable Qualifier" CORE="" DESCRIPTION="Qualifier for anatomical location or specimen further detailing the distribution, which means arrangement of, apportioning of." ORDER="52" Origin="Assigned" Comments="" ControlledTerm="" />
      <BASEVARIABLE NAME="--METHOD" LABEL="Method of Test or Examination" TYPE="Char" LENGTH="200" ROLE="Record Qualifier" CORE="" DESCRIPTION="Method of the test or examination. Examples: EIA (Enzyme Immunoassay), ELECTROPHORESIS, DIPSTICK." ORDER="53" Origin="Protocol" Comments="" ControlledTerm="" />
      <BASEVARIABLE NAME="--LEAD" LABEL="Lead Identified to Collect Measurements" TYPE="Char" LENGTH="10" ROLE="Record Qualifier" CORE="" DESCRIPTION="Lead or leads identified to capture the measurement for a testfrom an instrument. Examples: LEAD I, LEAD V2, LEAD CM5." ORDER="54" Origin="Assigned" Comments="" ControlledTerm="" />
      <BASEVARIABLE NAME="--CSTATE" LABEL="Consciousness State" TYPE="Char" LENGTH="200" ROLE="Record Qualifier" CORE="" DESCRIPTION="The consciousness state of the subject at the time of measurement. Examples: CONSCIOUS, SEMI-CONSCIOUS,UNCONSCIOUS" ORDER="55" Origin="Assigned" Comments="" ControlledTerm="" />
      <BASEVARIABLE NAME="--BLFL" LABEL="Baseline Flag" TYPE="Char" LENGTH="1" ROLE="Record Qualifier" CORE="" DESCRIPTION="Indicator used to identify a baseline value. Should be Y or null." ORDER="56" Origin="Derived" Comments="Derivation of baseline: Safety subjects only: --BLFL=Y for last non missing record on or before the first dose date (RFSTDTC)." ControlledTerm="" />
      <BASEVARIABLE NAME="--FAST" LABEL="Fasting Status" TYPE="Char" LENGTH="1" ROLE="Record Qualifier" CORE="" DESCRIPTION="Indicator used to identify fasting status. Valid values include Y, N, U or null if not relevant." ORDER="57" Origin="Assigned" Comments="" ControlledTerm="" />
      <BASEVARIABLE NAME="--DRVFL" LABEL="Derived Flag" TYPE="Char" LENGTH="1" ROLE="Record Qualifier" CORE="" DESCRIPTION="Used to indicate a Derived record (e.g., a record that represents the average of other records such as a computed baseline). Should be Y or null." ORDER="58" Origin="Assigned" Comments="" ControlledTerm="" />
      <BASEVARIABLE NAME="--EVAL" LABEL="Evaluator" TYPE="Char" LENGTH="20" ROLE="Record Qualifier" CORE="" DESCRIPTION="Role of the person who provided the evaluation. Used only for results that are subjective (e.g., Assigned by a person or a group). Examples: ADJUDICATION COMMITTEE, VENDOR." ORDER="59" Origin="Assigned" Comments="" ControlledTerm="" />
      <BASEVARIABLE NAME="--EVALID" LABEL="Evaluator Specified" TYPE="Char" LENGTH="20" ROLE="Variable Qualifier" CORE="" DESCRIPTION="The Evaluator Specified variable is used in conjunction with TUEVAL to provide an additional level of detail." ORDER="60" Origin="Assigned" Comments="" ControlledTerm="" />
      <BASEVARIABLE NAME="--ACPTFL" LABEL="Accepted Record Flag" TYPE="Char" LENGTH="1" ROLE="Record Qualifier" CORE="" DESCRIPTION="In cases where more than one independent assessor (e.g. RADIOLOGIST 1 &amp; RADIOLOGIST 2) provide independent assessments at the same time point this flag identifies the record that is considered to be the accepted assessment." ORDER="61" Origin="Assigned" Comments="" ControlledTerm="" />
      <BASEVARIABLE NAME="--TOX" LABEL="Toxicity" TYPE="Char" LENGTH="50" ROLE="Variable Qualifier" CORE="" DESCRIPTION="Description of toxicity quantified by --TOXGR such as NCI CTCAE Short Name. Examples: HYPERCALCEMIA, HYPOCALCEMIA. Sponsor should specify which scale and version is used in the Sponsor Comments column of the Define.xml document." ORDER="62" Origin="Derived" Comments="Derived from results and reference range based on AECTC V4.0" ControlledTerm="" />
      <BASEVARIABLE NAME="--TOXGR" LABEL="Toxicity Grade" TYPE="Char" LENGTH="1" ROLE="Variable Qualifier" CORE="" DESCRIPTION="Records toxicity grade using a standard toxicity scale (such as the NCI CTCAE). Sponsor should specify which scale and version is used in the Sponsor Comments column of the Define data definition document." ORDER="63" Origin="Derived" Comments="Derived from results and reference range based on AECTC V4.0" ControlledTerm="" />
      <BASEVARIABLE NAME="--SEV" LABEL="Severity" TYPE="Char" LENGTH="8" ROLE="Record Qualifier" CORE="" DESCRIPTION="Describes the severity or intensity of a particular finding. Examples: MILD, MODERATE, SEVERE." ORDER="64" Origin="Assigned" Comments="" ControlledTerm="" />
      <BASEVARIABLE NAME="--DTHREL" LABEL="Relationship to Death" TYPE="Char" LENGTH="200" ROLE="Record Qualifier" CORE="" DESCRIPTION="Describes the relationship of a particular finding to the death of a subject." ORDER="65" Origin="Assigned" Comments="" ControlledTerm="" />
      <BASEVARIABLE NAME="--LLOQ" LABEL="Lower Limit of Quantitation" TYPE="Num" LENGTH="8" ROLE="Variable Qualifier" CORE="" DESCRIPTION="Indicates the lower limit of quantitation for an assay. Units will be those used for --STRESU." ORDER="66" Origin="Assigned" Comments="" ControlledTerm="" />
      <BASEVARIABLE NAME="--EXCLFL" LABEL="Exclude from Statistics" TYPE="Char" LENGTH="1" ROLE="Record Qualifier" CORE="" DESCRIPTION="Indicates whether the values in the result variables for this record should be excluded from summary statistical calculations such as Mean, Standard Deviation, and Count (and others). Expected to be Y or null. --EXCLFL should not be used when --STAT is NOT DONE. Not to be used with human clinical trials." ORDER="67" Origin="Assigned" Comments="" ControlledTerm="" />
      <BASEVARIABLE NAME="--REASEX" LABEL="Reason for Exclusion from Statistics" TYPE="Char" LENGTH="200" ROLE="Record Qualifier" CORE="" DESCRIPTION="Reason excluded from statistics. Used in conjunction with --EXCLFL when its value is Y. Not to be used with human clinical trials" ORDER="68" Origin="Assigned" Comments="" ControlledTerm="" />
    </CLASSITEM>
    <CLASSITEM NAME="Special Purpose Domains" ORDER="2">
      <BASEVARIABLE NAME="SUBJID" LABEL="Subject Identifier for the Study" TYPE="Char" LENGTH="20" ROLE="Topic" CORE="" DESCRIPTION="Subject identifier, which must be unique within the study. Often the ID of the subject as recorded on a CRF." ORDER="20" Origin="Assigned" Comments="" ControlledTerm="" />
      <BASEVARIABLE NAME="RFSTDTC" LABEL="Subject Reference Start Date/Time" TYPE="Char" LENGTH="20" ROLE="Record Qualifier" CORE="" DESCRIPTION="Reference Start Date/time for the subject in ISO 8601 character format. Usually equivalent to date/time when subject was first exposed to study treatment. Required for all randomized subjects; will be null for all subjects who did not meet the milestone the date requires, such as screen failures or unAssigned subjects." ORDER="21" Origin="Derived" Comments="For safety subjects equal to first date/time of study drug. Null for subjects who did not take study drug." ControlledTerm="" />
      <BASEVARIABLE NAME="RFENDTC" LABEL="Subject Reference End Date/Time" TYPE="Char" LENGTH="20" ROLE="Record Qualifier" CORE="" DESCRIPTION="Reference End Date/time for the subject in ISO 8601 character format. Usually equivalent to the date/time when subject was determined to have ended the trial, and often equivalent to date/time of last exposure to study treatment. Required for all randomized subjects; null for screen failures or unAssigned subjects." ORDER="22" Origin="Derived" Comments="For safety subjects equal to last date/time of study drug. Null for subjects who did not take study drug." ControlledTerm="" />
      <BASEVARIABLE NAME="RFXSTDTC" LABEL="Date/Time of First Study Treatment" TYPE="Char" LENGTH="20" ROLE="Record Qualifier" CORE="" DESCRIPTION="First date of exposure to any Protocol-specified treatment or therapy for the subject in ISO 8601 character format." ORDER="23" Origin="Derived" Comments="Equal to first date/time of study drug. Null for subjects who did not take study drug." ControlledTerm="" />
      <BASEVARIABLE NAME="RFXENDTC" LABEL="Date/Time of Last Study Treatment" TYPE="Char" LENGTH="20" ROLE="Record Qualifier" CORE="" DESCRIPTION="Last date of exposure to any Protocol-specified treatment or therapy for the subject in ISO 8601 character format." ORDER="24" Origin="Derived" Comments="Equal to last date/time of study drug. Null for subjects who did not take study drug." ControlledTerm="" />
      <BASEVARIABLE NAME="RFICDTC" LABEL="Date/Time of Informed Consent" TYPE="Char" LENGTH="20" ROLE="Record Qualifier" CORE="" DESCRIPTION="Date/time of informed consent in ISO 8601 character format." ORDER="25" Origin="Assigned" Comments="" ControlledTerm="" />
      <BASEVARIABLE NAME="RFPENDTC" LABEL="Date/Time of End of Participation" TYPE="Char" LENGTH="20" ROLE="Record Qualifier" CORE="" DESCRIPTION="Date/time when subject ended participation or follow-up in a trial, in ISO 8601 character format. Should correspond to the last known date of contact." ORDER="26" Origin="Derived" Comments="Last known date of contact" ControlledTerm="" />
      <BASEVARIABLE NAME="DTHDTC" LABEL="Date/Time of Death" TYPE="Char" LENGTH="20" ROLE="Record Qualifier" CORE="" DESCRIPTION="Date/time of death for any subject who died, in ISO 8601 format. Should represent the date/time that is captured in the clinical-trial database." ORDER="27" Origin="Assigned" Comments="" ControlledTerm="" />
      <BASEVARIABLE NAME="DTHFL" LABEL="Subject Death Flag" TYPE="Char" LENGTH="1" ROLE="Record Qualifier" CORE="" DESCRIPTION="Indicates the subject died. Should be Y or null. Should be populated even when the death date is unknown." ORDER="28" Origin="Assigned" Comments="" ControlledTerm="" />
      <BASEVARIABLE NAME="SITEID" LABEL="Study Site Identifier" TYPE="Char" LENGTH="10" ROLE="Record Qualifier" CORE="" DESCRIPTION="Unique identifier for a site within a study." ORDER="29" Origin="Assigned" Comments="" ControlledTerm="" />
      <BASEVARIABLE NAME="INVID" LABEL="Investigator Identifier" TYPE="Char" LENGTH="50" ROLE="Record Qualifier" CORE="" DESCRIPTION="An identifier to describe the Investigator for the study. May be used in addition to the SITEID. Not needed if SITEID is equivalent to INVID." ORDER="30" Origin="Assigned" Comments="" ControlledTerm="" />
      <BASEVARIABLE NAME="INVNAM" LABEL="Investigator Name" TYPE="Char" LENGTH="200" ROLE="Synonym Qualifier" CORE="" DESCRIPTION="Name of the investigator for a site." ORDER="31" Origin="Assigned" Comments="" ControlledTerm="" />
      <BASEVARIABLE NAME="BRTHDTC" LABEL="Date/Time of Birth" TYPE="Char" LENGTH="20" ROLE="Record Qualifier" CORE="" DESCRIPTION="Date/time of birth of the subject in ISO 8601 character format." ORDER="32" Origin="Assigned" Comments="" ControlledTerm="" />
      <BASEVARIABLE NAME="AGE" LABEL="Age" TYPE="Num" LENGTH="8" ROLE="Record Qualifier" CORE="" DESCRIPTION="Age expressed in AGEU. May be Derived as (RFSTDTC-BRTHDTC), but BRTHDTC may not be available in all cases (due to subject privacy concerns)." ORDER="33" Origin="Derived" Comments="Year part of (RFICDTC - BRTHDTC)" ControlledTerm="" />
      <BASEVARIABLE NAME="AGEU" LABEL="Age Units" TYPE="Char" LENGTH="10" ROLE="Variable Qualifier" CORE="" DESCRIPTION="Units associated with AGE." ORDER="34" Origin="Assigned" Comments="" ControlledTerm="" />
      <BASEVARIABLE NAME="SEX" LABEL="Sex" TYPE="Char" LENGTH="2" ROLE="Record Qualifier" CORE="" DESCRIPTION="Sex of the subject." ORDER="35" Origin="Assigned" Comments="" ControlledTerm="" />
      <BASEVARIABLE NAME="RACE" LABEL="Race" TYPE="Char" LENGTH="41" ROLE="Record Qualifier" CORE="" DESCRIPTION="Race of the subject. Sponsors should refer to &quot;Collection of Race and Ethnicity Data in Clinical Trials&quot; (FDA, September 2005) for guidance regarding the collection of race ." ORDER="36" Origin="Assigned" Comments="" ControlledTerm="" />
      <BASEVARIABLE NAME="ETHNIC" LABEL="Ethnicity" TYPE="Char" LENGTH="50" ROLE="Record Qualifier" CORE="" DESCRIPTION="The ethnicity of the subject. Sponsors should refer to &quot;Collection of Race and Ethnicity Data in Clinical Trials&quot; (FDA, September 2005) for guidance regarding the collection of ethnicity." ORDER="37" Origin="Assigned" Comments="" ControlledTerm="" />
      <BASEVARIABLE NAME="ARMCD" LABEL="Planned Arm Code" TYPE="Char" LENGTH="20" ROLE="Record Qualifier" CORE="" DESCRIPTION="ARMCD is limited to 20 characters and does not have special character restrictions." ORDER="38" Origin="Assigned" Comments="" ControlledTerm="" />
      <BASEVARIABLE NAME="ARM" LABEL="Description of Planned Arm" TYPE="Char" LENGTH="200" ROLE="Synonym Qualifier" CORE="" DESCRIPTION="Name of the Arm to which the subject was Assigned." ORDER="39" Origin="Protocol" Comments="" ControlledTerm="" />
      <BASEVARIABLE NAME="ACTARMCD" LABEL="Actual Arm Code" TYPE="Char" LENGTH="20" ROLE="Record Qualifier" CORE="" DESCRIPTION="Short name for the actual Arm in which the subject participated during the trial, limited to 20 characters." ORDER="40" Origin="Derived" Comments="Derived from arm code in Trial Arm (TA) based on Actual Assignment." ControlledTerm="" />
      <BASEVARIABLE NAME="ACTARM" LABEL="Description of Actual Arm" TYPE="Char" LENGTH="200" ROLE="Synonym Qualifier" CORE="" DESCRIPTION="Description of the actual Arm in which the subject participated during thetrial." ORDER="41" Origin="Derived" Comments="Derived from description of arm in TRIAL ARM (TA) based on Actual Assignment." ControlledTerm="" />
      <BASEVARIABLE NAME="COUNTRY" LABEL="Country" TYPE="Char" LENGTH="3" ROLE="Record Qualifier" CORE="" DESCRIPTION="Country of the investigational site at which the subject participated in the trial in ISO 3166 three-character format." ORDER="42" Origin="Assigned" Comments="" ControlledTerm="" />
      <BASEVARIABLE NAME="RDOMAIN" LABEL="Related Domain Abbreviation" TYPE="Char" LENGTH="2" ROLE="Record Qualifier" CORE="" DESCRIPTION="Domain Abbreviation of the parent record(s). Null for records collected on general comments or additional information CRF page." ORDER="3" Origin="Assigned" Comments="" ControlledTerm="" />
      <BASEVARIABLE NAME="IDVAR" LABEL="Identifying Variable" TYPE="Char" LENGTH="8" ROLE="Record Qualifier" CORE="" DESCRIPTION="Identifying variable in the parent dataset that identifies the record(s) to which the comment applies. Examples AESEQ or CMGRPID. Used only when individual comments are related to domain records. Null for comments collected on separate CRFs." ORDER="24" Origin="Assigned" Comments="" ControlledTerm="" />
      <BASEVARIABLE NAME="IDVARVAL" LABEL="Identifying Variable Value" TYPE="Char" LENGTH="50" ROLE="Record Qualifier" CORE="" DESCRIPTION="Value of identifying variable of the parent record(s). Null for comments collected on separate CRFs." ORDER="25" Origin="Assigned" Comments="" ControlledTerm="" />
      <BASEVARIABLE NAME="--UPDES" LABEL="Description of Unplanned Element" TYPE="Char" LENGTH="200" ROLE="Synonym Qualifier" CORE="" DESCRIPTION="Description of what happened to the subject during an unplanned Element. Used only if ETCD has the value of &quot;UNPLAN&quot;." ORDER="125" Origin="Assigned" Comments="" ControlledTerm="" />
      <BASEVARIABLE NAME="COREF" LABEL="Comment Reference" TYPE="Char" LENGTH="200" ROLE="Record Qualifier" CORE="" DESCRIPTION="Sponsor-defined reference associated with the comment. May be the CRF page number (e.g. 650), or a module name (e.g. DEMOG), or a combination of information that identifies the reference (e.g. 650-VITALS-VISIT 2)." ORDER="20" Origin="Assigned" Comments="" ControlledTerm="" />
      <BASEVARIABLE NAME="COVAL" LABEL="Comment" TYPE="Char" LENGTH="200" ROLE="Topic" CORE="" DESCRIPTION="The text of the comment. Text over 200 characters can be added to additional columns COVAL1-COVALn." ORDER="21" Origin="Assigned" Comments="" ControlledTerm="" />
      <BASEVARIABLE NAME="COEVAL" LABEL="Evaluator" TYPE="Char" LENGTH="20" ROLE="Record Qualifier" CORE="" DESCRIPTION="Used to describe the originator of the comment. Example: CENTRAL REVIEWER." ORDER="31" Origin="Assigned" Comments="" ControlledTerm="" />
      <BASEVARIABLE NAME="ETCD" LABEL="Subject Element Code" TYPE="Char" LENGTH="8" ROLE="Topic" CORE="" DESCRIPTION="ETCD (the companion to ELEMENT) is limited to 8 characters and does not have special character restrictions. These values should be short for ease of use in programming, but it is not expected that ETCD will need to serve as a variable name." ORDER="22" Origin="Assigned" Comments="" ControlledTerm="" />
      <BASEVARIABLE NAME="ELEMENT" LABEL="Description of Subject Element" TYPE="Char" LENGTH="200" ROLE="Synonym Qualifier" CORE="" DESCRIPTION="The name of the Element. If ETCD has a value of &quot;UNPLAN&quot; then ELEMENT should be Null." ORDER="23" Origin="Protocol" Comments="" ControlledTerm="" />
      <BASEVARIABLE NAME="SESTDTC" LABEL="Start Date/Time of Element" TYPE="Char" LENGTH="20" ROLE="Timing" CORE="" DESCRIPTION="Start date/time for an Element for each subject, represented in ISO 8601 character format." ORDER="106" Origin="Assigned" Comments="" ControlledTerm="" />
      <BASEVARIABLE NAME="SEENDTC" LABEL="End Date/Time of Element" TYPE="Char" LENGTH="20" ROLE="Timing" CORE="" DESCRIPTION="End date/time of an Element for each subject, represented in ISO 8601 character format." ORDER="107" Origin="Assigned" Comments="" ControlledTerm="" />
      <BASEVARIABLE NAME="SEUPDES" LABEL="Description of Unplanned Element" TYPE="Char" LENGTH="200" ROLE="Synonym Qualifier" CORE="" DESCRIPTION="Description of what happened to the subject during an unplanned Element. Used only if ETCD has the value of &quot;UNPLAN&quot;." ORDER="125" Origin="Assigned" Comments="" ControlledTerm="" />
    </CLASSITEM>
    <CLASSITEM NAME="Relationship Datasets" ORDER="1">
      <BASEVARIABLE NAME="IDVAR" LABEL="Identifying Variable" TYPE="Char" LENGTH="8" ROLE="Record Qualifier" CORE="" DESCRIPTION="Identifying variable in the dataset that identifies the related record(s). Examples: --SEQ and --GRPID." ORDER="24" Origin="Assigned" Comments="" ControlledTerm="" />
      <BASEVARIABLE NAME="IDVARVAL" LABEL="Identifying Variable Value" TYPE="Char" LENGTH="50" ROLE="Record Qualifier" CORE="" DESCRIPTION="Value of identifying variable of the related parent record(s). Used only when individual records are being related." ORDER="25" Origin="Assigned" Comments="" ControlledTerm="" />
      <BASEVARIABLE NAME="RELTYPE" LABEL="Relationship Type" TYPE="Char" LENGTH="4" ROLE="Record Qualifier" CORE="" DESCRIPTION="Identifying the hierarchical level of the records in the relationship. Values must be either ONE or MANY. Used only when datasets are being related." ORDER="26" Origin="Assigned" Comments="" ControlledTerm="" />
      <BASEVARIABLE NAME="RELID" LABEL="Relationship Identifier" TYPE="Char" LENGTH="20" ROLE="Identifier" CORE="" DESCRIPTION="Unique value within a USUBJID that identifies the relationship. All records for the same USUBJID that have the same RELID are considered ‘related/associated.’ RELID can be any value the sponsor chooses, and is only meaningful within the RELREC dataset to identify the related/associated Domain records." ORDER="27" Origin="Assigned" Comments="" ControlledTerm="" />
      <BASEVARIABLE NAME="STUDYID" LABEL="Study Identifier" TYPE="Char" LENGTH="20" ROLE="Identifier" CORE="" DESCRIPTION="Study Identifier of the domain record(s)." ORDER="1" Origin="Assigned" Comments="" ControlledTerm="" />
      <BASEVARIABLE NAME="RDOMAIN" LABEL="Related Domain Abbreviation" TYPE="Char" LENGTH="2" ROLE="Identifier" CORE="" DESCRIPTION="Two-character abbreviation for the domain of the parent record(s)." ORDER="3" Origin="Assigned" Comments="" ControlledTerm="" />
      <BASEVARIABLE NAME="USUBJID" LABEL="Unique Subject Identifier" TYPE="Char" LENGTH="25" ROLE="Identifier" CORE="" DESCRIPTION="Identifier used to uniquely identify a subject across all studies for all applications or submissions involving the product" ORDER="4" Origin="Derived" Comments="Concatenate STUDYID, SITEID and SUBJID, separated by &quot;-&quot;." ControlledTerm="" />
      <BASEVARIABLE NAME="--UPDES" LABEL="Description of Unplanned Visit" TYPE="Char" LENGTH="200" ROLE="Synonym Qualifier" CORE="" DESCRIPTION="Description of what happened to the subject during an unplanned visit. Null for Protocol-defined visits." ORDER="125" Origin="Assigned" Comments="" ControlledTerm="" />
    </CLASSITEM>
    <CLASSITEM NAME="Trial Design" ORDER="1">
      <BASEVARIABLE NAME="ARMCD" LABEL="Planned Arm Code" TYPE="Char" LENGTH="20" ROLE="Record Qualifier" CORE="" DESCRIPTION="Short 8-character version of ARM, used for programming." ORDER="20" Origin="Assigned" Comments="" ControlledTerm="" />
      <BASEVARIABLE NAME="ARM" LABEL="Description of Planned Arm" TYPE="Char" LENGTH="200" ROLE="Synonym Qualifier" CORE="" DESCRIPTION="Name given to Arm or treatment group." ORDER="21" Origin="Protocol" Comments="" ControlledTerm="" />
      <BASEVARIABLE NAME="ETCD" LABEL="Element Code" TYPE="Char" LENGTH="8" ROLE="Record Qualifier" CORE="" DESCRIPTION="Short 8-character name for ELEMENT, used for programming. If an encountered Element differs from the planned ELEMENT to the point that it is considered a new ELEMENT, then use UNPLAN as the value for ETCD to represent this Element." ORDER="22" Origin="Assigned" Comments="" ControlledTerm="" />
      <BASEVARIABLE NAME="ELEMENT" LABEL="Description of Element" TYPE="Char" LENGTH="200" ROLE="Synonym Qualifier" CORE="" DESCRIPTION="The name of the Element. If an encountered Element differs from the planned ELEMENT to the point that it is considered a new ELEMENT, then ELEMENT should be null." ORDER="23" Origin="Protocol" Comments="" ControlledTerm="" />
    </CLASSITEM>
    <CLASSITEM NAME="Identifier" ORDER="1">
      <BASEVARIABLE NAME="STUDYID" LABEL="Study Identifier" TYPE="Char" LENGTH="20" ROLE="Identifier" CORE="" DESCRIPTION="Unique identifier for a study." ORDER="1" Origin="Assigned" Comments="" ControlledTerm="" />
      <BASEVARIABLE NAME="DOMAIN" LABEL="Domain Abbreviation" TYPE="Char" LENGTH="2" ROLE="Identifier" CORE="" DESCRIPTION="Two-character abbreviation for the domain most relevant to the observation. The Domain abbreviation is also used as a prefix for variables to ensure uniqueness when datasets are merged." ORDER="2" Origin="Assigned" Comments="" ControlledTerm="" />
      <BASEVARIABLE NAME="RDOMAIN" LABEL="Related Domain Abbreviation" TYPE="Char" LENGTH="2" ROLE="Identifier" CORE="" DESCRIPTION="Domain Abbreviation of the parent record(s)." ORDER="3" Origin="Assigned" Comments="" ControlledTerm="" />
      <BASEVARIABLE NAME="USUBJID" LABEL="Unique Subject Identifier" TYPE="Char" LENGTH="25" ROLE="Identifier" CORE="" DESCRIPTION="Identifier used to uniquely identify a subject across all studies for all applications or submissions involving the product." ORDER="4" Origin="Derived" Comments="Concatenate STUDYID, SITEID and SUBJID, separated by &quot;-&quot;." ControlledTerm="" />
      <BASEVARIABLE NAME="POOLID" LABEL="Pool Identifier" TYPE="Char" LENGTH="20" ROLE="Identifier" CORE="" DESCRIPTION="An identifier used to identify a result from a group of subjects that is notassignable to a specific subject." ORDER="5" Origin="Assigned" Comments="" ControlledTerm="" />
      <BASEVARIABLE NAME="UDEVID" LABEL="Generic Device Identifier" TYPE="Char" LENGTH="20" ROLE="Identifier" CORE="" DESCRIPTION="General name for a device." ORDER="6" Origin="Assigned" Comments="" ControlledTerm="" />
      <BASEVARIABLE NAME="UPRODID" LABEL="Unique Device Identifier" TYPE="Char" LENGTH="20" ROLE="Identifier" CORE="" DESCRIPTION="Unique identifier for a specific device or collection of devices." ORDER="7" Origin="Assigned" Comments="" ControlledTerm="" />
      <BASEVARIABLE NAME="--SEQ" LABEL="Sequence Number" TYPE="Num" LENGTH="8" ROLE="Identifier" CORE="" DESCRIPTION="Sequence number to ensure uniqueness of records within a dataset for a subject (or within a parameter, in the case of the Trial Summary domain). May be any valid number (including decimals) and does not have to start at 1. Should be Assigned to be in a consistent chronological order." ORDER="8" Origin="Derived" Comments="Sort by the key variables specified in the domain list. Assign --SEQ=1 to the first record and increment --SEQ by 1 for each additional record so that --SEQ is unique for each record within a USUBJID." ControlledTerm="" />
      <BASEVARIABLE NAME="--GRPID" LABEL="Group ID" TYPE="Char" LENGTH="20" ROLE="Identifier" CORE="" DESCRIPTION="Optional group identifier, used to link together a block of related records within a subject in a domain. Also used to link together a block of related records in the Trial Summary dataset." ORDER="9" Origin="Assigned" Comments="" ControlledTerm="" />
      <BASEVARIABLE NAME="--REFID" LABEL="Reference ID" TYPE="Char" LENGTH="20" ROLE="Identifier" CORE="" DESCRIPTION="Optional internal or external identifier such as lab specimen ID, or UUID for an ECG waveform or a medical image." ORDER="10" Origin="Assigned" Comments="" ControlledTerm="" />
      <BASEVARIABLE NAME="--SPID" LABEL="Sponsor-Defined Identifier" TYPE="Char" LENGTH="20" ROLE="Identifier" CORE="" DESCRIPTION="Sponsor-defined identifier. Example: pre-printed line identifier on a Concomitant Medications page." ORDER="11" Origin="Assigned" Comments="" ControlledTerm="" />
      <BASEVARIABLE NAME="--LNKID" LABEL="Link ID" TYPE="Char" LENGTH="20" ROLE="Identifier" CORE="" DESCRIPTION="Identifier used to link a feature (such as a tumor) initially recorded as a result in one findings domain to assessments of that feature in another findings domain. This may be a one-to-one or a one-to-many relationship. For Example: A single tumor may have multiple measurements/assessment performed at each study visit." ORDER="12" Origin="Assigned" Comments="" ControlledTerm="" />
      <BASEVARIABLE NAME="--LNKGRP" LABEL="Link Group ID" TYPE="Char" LENGTH="20" ROLE="Identifier" CORE="" DESCRIPTION="A grouping identifier used to identify a group of assessment results in one domain that are evaluated, as a group, and contribute to a (summary) result in another domain. This will usually be a many-to-one relationship. For example: Multiple tumor measurements/assessments will contribute to a single response to therapy determination record." ORDER="13" Origin="Assigned" Comments="" ControlledTerm="" />
    </CLASSITEM>
    <CLASSITEM NAME="Timing" ORDER="3">
      <BASEVARIABLE NAME="VISITNUM" LABEL="Visit Number" TYPE="Num" LENGTH="8" ROLE="Timing" CORE="" DESCRIPTION="Clinical encounter number. Numeric version of VISIT, used for sorting." ORDER="100" Origin="Assigned" Comments="" ControlledTerm="" />
      <BASEVARIABLE NAME="VISIT" LABEL="Visit Name" TYPE="Char" LENGTH="200" ROLE="Timing" CORE="" DESCRIPTION="Protocol-defined description of a clinical encounter." ORDER="101" Origin="Assigned" Comments="" ControlledTerm="" />
      <BASEVARIABLE NAME="VISITDY" LABEL="Planned Study Day of Visit" TYPE="Num" LENGTH="8" ROLE="Timing" CORE="" DESCRIPTION="Planned study day of VISIT. Should be an integer." ORDER="102" Origin="Protocol" Comments="" ControlledTerm="" />
      <BASEVARIABLE NAME="TAETORD" LABEL="Planned Order of Elements within Arm" TYPE="Num" LENGTH="8" ROLE="Timing" CORE="" DESCRIPTION="Number that gives the planned order of the Element within the Arm." ORDER="103" Origin="Assigned" Comments="" ControlledTerm="" />
      <BASEVARIABLE NAME="EPOCH" LABEL="Epoch" TYPE="Char" LENGTH="50" ROLE="Timing" CORE="" DESCRIPTION="Epoch associated with the start date/time of the observation, or the date/time of collection if start date/time is not collected." ORDER="104" Origin="Derived" Comments="'SCREENING' if date of findings or start date of events/interventions is before RFSTDTC; 'TREATMENT' if date of findings or start date of events/interventions is between RFSTDTC and RFENDTC; 'FOLLOW-UP' if date of findings or start date of events/interventions is after RFENDTC." ControlledTerm="" />
      <BASEVARIABLE NAME="--DTC" LABEL="Date/Time of Collection" TYPE="Char" LENGTH="20" ROLE="Timing" CORE="" DESCRIPTION="Collection date and time of an observation represented in IS0 8601 character format." ORDER="105" Origin="Assigned" Comments="" ControlledTerm="" />
      <BASEVARIABLE NAME="--STDTC" LABEL="Start Date/Time of Observation" TYPE="Char" LENGTH="20" ROLE="Timing" CORE="" DESCRIPTION="Start date/time of an observation represented in IS0 8601 character format." ORDER="106" Origin="Assigned" Comments="" ControlledTerm="" />
      <BASEVARIABLE NAME="--ENDTC" LABEL="End Date/Time of Observation" TYPE="Char" LENGTH="20" ROLE="Timing" CORE="" DESCRIPTION="End date/time of the observation represented in IS0 8601 character format." ORDER="107" Origin="Assigned" Comments="" ControlledTerm="" />
      <BASEVARIABLE NAME="--DY" LABEL="Study Day of Visit/Collection/Exam" TYPE="Num" LENGTH="8" ROLE="Timing" CORE="" DESCRIPTION="Actual study day of visit/collection/exam expressed in integer days relative to the sponsor-defined RFSTDTC in Demographics." ORDER="108" Origin="Derived" Comments="Relative study day between &lt;--DTC&gt; and DM.RFSTDTC. Add 1 if the difference is greater than or equal to 0." ControlledTerm="" />
      <BASEVARIABLE NAME="--STDY" LABEL="Study Day of Start of Observation" TYPE="Num" LENGTH="8" ROLE="Timing" CORE="" DESCRIPTION="Actual study day of start of observation expressed in integer days relative to the sponsor-defined RFSTDTC in Demographics." ORDER="109" Origin="Derived" Comments="Relative study day between &lt;--STDTC&gt; and DM.RFSTDTC. Add 1 if the difference is greater than or equal to 0." ControlledTerm="" />
      <BASEVARIABLE NAME="--ENDY" LABEL="Study Day of End of Observation" TYPE="Num" LENGTH="8" ROLE="Timing" CORE="" DESCRIPTION="Actual study day of end of observation expressed in integer days relative to the sponsor-defined RFSTDTC in Demographics." ORDER="110" Origin="Derived" Comments="Relative study day between &lt;--ENDTC&gt; and DM.RFSTDTC. Add 1 if the difference is greater than or equal to 0." ControlledTerm="" />
      <BASEVARIABLE NAME="--DUR" LABEL="Duration" TYPE="Char" LENGTH="50" ROLE="Timing" CORE="" DESCRIPTION="Collected duration of an event, intervention, or finding represented in ISO 8601 character format. Used only if collected on the CRF and not Derived." ORDER="111" Origin="Assigned" Comments="" ControlledTerm="" />
      <BASEVARIABLE NAME="--TPT" LABEL="Planned Time Point Name" TYPE="Char" LENGTH="200" ROLE="Timing" CORE="" DESCRIPTION="Text description of time when a measurement or observation should be taken as defined in the Protocol. This may be represented as an elapsed time relative to a fixed reference point, such as time of last dose. See --TPTNUM and --TPTREF." ORDER="112" Origin="Assigned" Comments="" ControlledTerm="" />
      <BASEVARIABLE NAME="--TPTNUM" LABEL="Planned Time Point Number" TYPE="Num" LENGTH="8" ROLE="Timing" CORE="" DESCRIPTION="Numeric version of planned time point used in sorting." ORDER="113" Origin="Assigned" Comments="" ControlledTerm="" />
      <BASEVARIABLE NAME="--ELTM" LABEL="Planned Elapsed Time from Time Point Ref" TYPE="Char" LENGTH="20" ROLE="Timing" CORE="" DESCRIPTION="Planned Elapsed time in ISO 8601 character format relative to a planned fixed reference (--TPTREF) such as &quot;Previous Dose&quot; or &quot;Previous Meal&quot;. This variable is useful where there are repetitive measures. Not a clock time or a date/time variable, but an interval, represented as ISO duration." ORDER="114" Origin="Protocol" Comments="" ControlledTerm="" />
      <BASEVARIABLE NAME="--TPTREF" LABEL="Time Point Reference" TYPE="Char" LENGTH="200" ROLE="Timing" CORE="" DESCRIPTION="Description of the fixed reference point referred to by --ELTM, --TPTNUM, and --TPT. Examples: PREVIOUS DOSE, PREVIOUS MEAL." ORDER="115" Origin="Assigned" Comments="" ControlledTerm="" />
      <BASEVARIABLE NAME="--RFTDTC" LABEL="Date/Time of Reference Time Point" TYPE="Char" LENGTH="20" ROLE="Timing" CORE="" DESCRIPTION="Date/time for a fixed reference time point defined by --TPTREF in ISO 8601 character format." ORDER="116" Origin="Assigned" Comments="" ControlledTerm="" />
      <BASEVARIABLE NAME="--STRF" LABEL="Start Relative to Reference Period" TYPE="Char" LENGTH="12" ROLE="Timing" CORE="" DESCRIPTION="Identifies the start of the observation as being before, during, or after the sponsor-defined reference period. The sponsor-defined reference period is a continuous period of time defined by a discrete starting point and a discrete ending point represented by RFSTDTC and RFENDTC in Demographics." ORDER="117" Origin="Assigned" Comments="" ControlledTerm="" />
      <BASEVARIABLE NAME="--ENRF" LABEL="End Relative to Reference Period" TYPE="Char" LENGTH="12" ROLE="Timing" CORE="" DESCRIPTION="Identifies the end of the observation as being before, during or after the sponsor-defined reference period. The sponsor-defined reference period is a continuous period of time defined by a discrete starting point and a discrete ending point represented by RFSTDTC and RFENDTC in Demographics." ORDER="118" Origin="Assigned" Comments="" ControlledTerm="" />
      <BASEVARIABLE NAME="--EVLINT" LABEL="Evaluation Interval" TYPE="Char" LENGTH="20" ROLE="Timing" CORE="" DESCRIPTION="Evaluation interval associated with an observation such as a finding --TESTCD, represented in ISO 8601 character format. Example: -P2M to represent a period of the past 2 months as the evaluation interval for a question from a questionnaire such as SF-36." ORDER="119" Origin="Assigned" Comments="" ControlledTerm="" />
      <BASEVARIABLE NAME="--STRTPT" LABEL="Start Relative to Reference Time Point" TYPE="Char" LENGTH="12" ROLE="Timing" CORE="" DESCRIPTION="Identifies the start of the observation as being before or after the sponsor-defined reference time point defined by variable --STTPT." ORDER="120" Origin="Assigned" Comments="" ControlledTerm="" />
      <BASEVARIABLE NAME="--STTPT" LABEL="Start Reference Time Point" TYPE="Char" LENGTH="200" ROLE="Timing" CORE="" DESCRIPTION="Description or date/time in ISO 8601 character format of the sponsor-defined reference point referred to by --STRTPT. Examples: &quot;2003-12-15&quot; or &quot;VISIT 1&quot;." ORDER="121" Origin="Assigned" Comments="" ControlledTerm="" />
      <BASEVARIABLE NAME="--ENRTPT" LABEL="End Relative to Reference Time Point" TYPE="Char" LENGTH="12" ROLE="Timing" CORE="" DESCRIPTION="Identifies the end of the observation as being before or after the sponsor-defined reference time point defined by variable --ENTPT." ORDER="122" Origin="Assigned" Comments="" ControlledTerm="" />
      <BASEVARIABLE NAME="--ENTPT" LABEL="End Reference Time Point" TYPE="Char" LENGTH="200" ROLE="Timing" CORE="" DESCRIPTION="Description or date/time in ISO 8601 character format of the sponsor-defined reference point referred to by --ENRTPT. Examples: &quot;2003-12-25&quot; or &quot;VISIT 2&quot;." ORDER="123" Origin="Assigned" Comments="" ControlledTerm="" />
      <BASEVARIABLE NAME="--DETECT" LABEL="Time in Days to Detection" TYPE="Num" LENGTH="8" ROLE="Timing" CORE="" DESCRIPTION="The number of days from the start of dosing to the earliest detection of acondition or pathogen." ORDER="124" Origin="Assigned" Comments="" ControlledTerm="" />
    </CLASSITEM>
    <CLASSITEM NAME="Source" ORDER="999" />
  </CLASS>
  <DOMAINLIST>
    <DOMAIN CODE="DM" NAME="Demographics" STRUCTURE="One record per subject" CLASS="Special Purpose Domains" DESCRIPTION="">
      <VARIABLES>
        <VARIABLE NAME="STUDYID" LABEL="Study Identifier" TYPE="Char" LENGTH="20" ROLE="Identifier" CORE="Req" CONTROLLED="" DESCRIPTION="" ORIGIN="Assigned" ORDER="1" Comments="" />
        <VARIABLE NAME="DOMAIN" LABEL="Domain Abbreviation" TYPE="Char" LENGTH="2" ROLE="Identifier" CORE="Req" CONTROLLED="" DESCRIPTION="" ORIGIN="Assigned" ORDER="2" Comments="" />
        <VARIABLE NAME="USUBJID" LABEL="Unique Subject Identifier" TYPE="Char" LENGTH="25" ROLE="Identifier" CORE="Req" CONTROLLED="" DESCRIPTION="" ORIGIN="Derived" ORDER="4" Comments="Concatenate STUDYID, SITEID and SUBJID, separated by &quot;-&quot;." />
        <VARIABLE NAME="SUBJID" LABEL="Subject Identifier for the Study" TYPE="Char" LENGTH="20" ROLE="Topic" CORE="Req" CONTROLLED="" DESCRIPTION="" ORIGIN="Assigned" ORDER="20" Comments="" />
        <VARIABLE NAME="RFSTDTC" LABEL="Subject Reference Start Date/Time" TYPE="Char" LENGTH="20" ROLE="Record Qualifier" CORE="Exp" CONTROLLED="ISO 8601" DESCRIPTION="" ORIGIN="Derived" ORDER="21" Comments="For safety subjects equal to first date/time of study drug. Null for subjects who did not take study drug." />
        <VARIABLE NAME="RFENDTC" LABEL="Subject Reference End Date/Time" TYPE="Char" LENGTH="20" ROLE="Record Qualifier" CORE="Exp" CONTROLLED="ISO 8601" DESCRIPTION="" ORIGIN="Derived" ORDER="22" Comments="For safety subjects equal to last date/time of study drug. Null for subjects who did not take study drug." />
        <VARIABLE NAME="RFXSTDTC" LABEL="Date/Time of First Study Treatment" TYPE="Char" LENGTH="20" ROLE="Record Qualifier" CORE="Exp" CONTROLLED="ISO 8601" DESCRIPTION="" ORIGIN="Derived" ORDER="23" Comments="Equal to first date/time of study drug. Null for subjects who did not take study drug." />
        <VARIABLE NAME="RFXENDTC" LABEL="Date/Time of Last Study Treatment" TYPE="Char" LENGTH="20" ROLE="Record Qualifier" CORE="Exp" CONTROLLED="ISO 8601" DESCRIPTION="" ORIGIN="Derived" ORDER="24" Comments="Equal to last date/time of study drug. Null for subjects who did not take study drug." />
        <VARIABLE NAME="RFICDTC" LABEL="Date/Time of Informed Consent" TYPE="Char" LENGTH="20" ROLE="Record Qualifier" CORE="Exp" CONTROLLED="ISO 8601" DESCRIPTION="" ORIGIN="Assigned" ORDER="25" Comments="" />
        <VARIABLE NAME="RFPENDTC" LABEL="Date/Time of End of Participation" TYPE="Char" LENGTH="20" ROLE="Record Qualifier" CORE="Exp" CONTROLLED="ISO 8601" DESCRIPTION="" ORIGIN="Derived" ORDER="26" Comments="Last known date of contact" />
        <VARIABLE NAME="DTHDTC" LABEL="Date/Time of Death" TYPE="Char" LENGTH="20" ROLE="Record Qualifier" CORE="Exp" CONTROLLED="ISO 8601" DESCRIPTION="" ORIGIN="Assigned" ORDER="27" Comments="" />
        <VARIABLE NAME="DTHFL" LABEL="Subject Death Flag" TYPE="Char" LENGTH="1" ROLE="Record Qualifier" CORE="Exp" CONTROLLED="(NY)" DESCRIPTION="" ORIGIN="Assigned" ORDER="28" Comments="" />
        <VARIABLE NAME="SITEID" LABEL="Study Site Identifier" TYPE="Char" LENGTH="10" ROLE="Record Qualifier" CORE="Req" CONTROLLED="" DESCRIPTION="" ORIGIN="Assigned" ORDER="29" Comments="" />
        <VARIABLE NAME="INVID" LABEL="Investigator Identifier" TYPE="Char" LENGTH="50" ROLE="Record Qualifier" CORE="Perm" CONTROLLED="" DESCRIPTION="" ORIGIN="Assigned" ORDER="30" Comments="" />
        <VARIABLE NAME="INVNAM" LABEL="Investigator Name" TYPE="Char" LENGTH="200" ROLE="Synonym Qualifier" CORE="Perm" CONTROLLED="" DESCRIPTION="" ORIGIN="Assigned" ORDER="31" Comments="" />
        <VARIABLE NAME="BRTHDTC" LABEL="Date/Time of Birth" TYPE="Char" LENGTH="20" ROLE="Record Qualifier" CORE="Perm" CONTROLLED="ISO 8601" DESCRIPTION="" ORIGIN="Assigned" ORDER="32" Comments="" />
        <VARIABLE NAME="AGE" LABEL="Age" TYPE="Num" LENGTH="8" ROLE="Record Qualifier" CORE="Exp" CONTROLLED="" DESCRIPTION="" ORIGIN="Derived" ORDER="33" Comments="Derived from DM.BRTHDTC and DM.RFICDTC." />
        <VARIABLE NAME="AGEU" LABEL="Age Units" TYPE="Char" LENGTH="10" ROLE="Variable Qualifier" CORE="Exp" CONTROLLED="(AGEU)" DESCRIPTION="" ORIGIN="Assigned" ORDER="34" Comments="" />
        <VARIABLE NAME="SEX" LABEL="Sex" TYPE="Char" LENGTH="2" ROLE="Record Qualifier" CORE="Req" CONTROLLED="(SEX)" DESCRIPTION="" ORIGIN="Assigned" ORDER="35" Comments="" />
        <VARIABLE NAME="RACE" LABEL="Race" TYPE="Char" LENGTH="41" ROLE="Record Qualifier" CORE="Exp" CONTROLLED="(RACE)" DESCRIPTION="" ORIGIN="Assigned" ORDER="36" Comments="" />
        <VARIABLE NAME="ETHNIC" LABEL="Ethnicity" TYPE="Char" LENGTH="50" ROLE="Record Qualifier" CORE="Perm" CONTROLLED="(ETHNIC)" DESCRIPTION="" ORIGIN="Assigned" ORDER="37" Comments="" />
        <VARIABLE NAME="ARMCD" LABEL="Planned Arm Code" TYPE="Char" LENGTH="20" ROLE="Record Qualifier" CORE="Req" CONTROLLED="" DESCRIPTION="" ORIGIN="Derived" ORDER="38" Comments="Derived from arm code in TRIAL ARM (TA) based on Randomization Number." />
        <VARIABLE NAME="ARM" LABEL="Description of Planned Arm" TYPE="Char" LENGTH="200" ROLE="Synonym Qualifier" CORE="Req" CONTROLLED="" DESCRIPTION="" ORIGIN="Derived" ORDER="39" Comments="Derived from description of arm in TRIAL ARM (TA) based on Randomization Number." />
        <VARIABLE NAME="ACTARMCD" LABEL="Actual Arm Code" TYPE="Char" LENGTH="20" ROLE="Record Qualifier" CORE="Req" CONTROLLED="" DESCRIPTION="" ORIGIN="Derived" ORDER="40" Comments="Derived from arm code in Trial Arm (TA) based on Actual Assignment." />
        <VARIABLE NAME="ACTARM" LABEL="Description of Actual Arm" TYPE="Char" LENGTH="200" ROLE="Synonym Qualifier" CORE="Req" CONTROLLED="" DESCRIPTION="" ORIGIN="Derived" ORDER="41" Comments="Derived from description of arm in TRIAL ARM (TA) based on Actual Assignment." />
        <VARIABLE NAME="COUNTRY" LABEL="Country" TYPE="Char" LENGTH="3" ROLE="Record Qualifier" CORE="Req" CONTROLLED="(COUNTRY) ISO 3166" DESCRIPTION="" ORIGIN="Assigned" ORDER="42" Comments="" />
        <VARIABLE NAME="DMDTC" LABEL="Date/Time of Collection" TYPE="Char" LENGTH="20" ROLE="Timing" CORE="Perm" CONTROLLED="ISO 8601" DESCRIPTION="" ORIGIN="Assigned" ORDER="105" Comments="" />
        <VARIABLE NAME="DMDY" LABEL="Study Day of Collection" TYPE="Num" LENGTH="8" ROLE="Timing" CORE="Perm" CONTROLLED="" DESCRIPTION="" ORIGIN="Derived" ORDER="108" Comments="Relative study day between &lt;DMDTC&gt; and DM.RFSTDTC. Add 1 if the difference is greater than or equal to 0." />
      </VARIABLES>
      <KEYVARIABLES>
        <VARIABLE NAME="STUDYID" />
        <VARIABLE NAME="USUBJID" />
      </KEYVARIABLES>
    </DOMAIN>
    <DOMAIN CODE="CO" NAME="Comments" STRUCTURE="One record per comment per subject" CLASS="Special Purpose Domains" DESCRIPTION="">
      <VARIABLES>
        <VARIABLE NAME="STUDYID" LABEL="Study Identifier" TYPE="Char" LENGTH="20" ROLE="Identifier" CORE="Req" CONTROLLED="" DESCRIPTION="" ORIGIN="Assigned" ORDER="1" Comments="" />
        <VARIABLE NAME="DOMAIN" LABEL="Domain Abbreviation" TYPE="Char" LENGTH="2" ROLE="Identifier" CORE="Req" CONTROLLED="" DESCRIPTION="" ORIGIN="Assigned" ORDER="2" Comments="" />
        <VARIABLE NAME="RDOMAIN" LABEL="Related Domain Abbreviation" TYPE="Char" LENGTH="2" ROLE="Record Qualifier" CORE="Perm" CONTROLLED="" DESCRIPTION="" ORIGIN="Assigned" ORDER="3" Comments="" />
        <VARIABLE NAME="USUBJID" LABEL="Unique Subject Identifier" TYPE="Char" LENGTH="25" ROLE="Identifier" CORE="Req" CONTROLLED="" DESCRIPTION="" ORIGIN="Derived" ORDER="4" Comments="Concatenate STUDYID, SITEID and SUBJID, separated by &quot;-&quot;." />
        <VARIABLE NAME="COSEQ" LABEL="Sequence Number" TYPE="Num" LENGTH="8" ROLE="Identifier" CORE="Req" CONTROLLED="" DESCRIPTION="" ORIGIN="Derived" ORDER="8" Comments="Sort by the key variables specified in the domain list. Assign COSEQ=1 to the first record and increment COSEQ by 1 for each additional record so that COSEQ is unique for each record within a USUBJID." />
        <VARIABLE NAME="IDVAR" LABEL="Identifying Variable" TYPE="Char" LENGTH="8" ROLE="Record Qualifier" CORE="Perm" CONTROLLED="" DESCRIPTION="" ORIGIN="Assigned" ORDER="24" Comments="" />
        <VARIABLE NAME="IDVARVAL" LABEL="Identifying Variable Value" TYPE="Char" LENGTH="50" ROLE="Record Qualifier" CORE="Perm" CONTROLLED="" DESCRIPTION="" ORIGIN="Assigned" ORDER="25" Comments="" />
        <VARIABLE NAME="COREF" LABEL="Comment Reference" TYPE="Char" LENGTH="200" ROLE="Record Qualifier" CORE="Perm" CONTROLLED="" DESCRIPTION="" ORIGIN="Assigned" ORDER="20" Comments="" />
        <VARIABLE NAME="COVAL" LABEL="Comment" TYPE="Char" LENGTH="200" ROLE="Topic" CORE="Req" CONTROLLED="" DESCRIPTION="" ORIGIN="Assigned" ORDER="21" Comments="" />
        <VARIABLE NAME="COVAL1" LABEL="Comment" TYPE="Char" LENGTH="200" ROLE="Topic" CORE="Perm" CONTROLLED="" DESCRIPTION="" ORIGIN="Assigned" ORDER="22" Comments="" />
        <VARIABLE NAME="COVAL2" LABEL="Comment" TYPE="Char" LENGTH="200" ROLE="Topic" CORE="Perm" CONTROLLED="" DESCRIPTION="" ORIGIN="Assigned" ORDER="23" Comments="" />
        <VARIABLE NAME="COVAL3" LABEL="Comment" TYPE="Char" LENGTH="200" ROLE="Topic" CORE="Perm" CONTROLLED="" DESCRIPTION="" ORIGIN="Assigned" ORDER="24" Comments="" />
        <VARIABLE NAME="COVAL4" LABEL="Comment" TYPE="Char" LENGTH="200" ROLE="Topic" CORE="Perm" CONTROLLED="" DESCRIPTION="" ORIGIN="Assigned" ORDER="25" Comments="" />
        <VARIABLE NAME="COVAL5" LABEL="Comment" TYPE="Char" LENGTH="200" ROLE="Topic" CORE="Perm" CONTROLLED="" DESCRIPTION="" ORIGIN="Assigned" ORDER="26" Comments="" />
        <VARIABLE NAME="COVAL6" LABEL="Comment" TYPE="Char" LENGTH="200" ROLE="Topic" CORE="Perm" CONTROLLED="" DESCRIPTION="" ORIGIN="Assigned" ORDER="27" Comments="" />
        <VARIABLE NAME="COVAL7" LABEL="Comment" TYPE="Char" LENGTH="200" ROLE="Topic" CORE="Perm" CONTROLLED="" DESCRIPTION="" ORIGIN="Assigned" ORDER="28" Comments="" />
        <VARIABLE NAME="COVAL8" LABEL="Comment" TYPE="Char" LENGTH="200" ROLE="Topic" CORE="Perm" CONTROLLED="" DESCRIPTION="" ORIGIN="Assigned" ORDER="29" Comments="" />
        <VARIABLE NAME="COVAL9" LABEL="Comment" TYPE="Char" LENGTH="200" ROLE="Topic" CORE="Perm" CONTROLLED="" DESCRIPTION="" ORIGIN="Assigned" ORDER="30" Comments="" />
        <VARIABLE NAME="COVAL10" LABEL="Comment" TYPE="Char" LENGTH="200" ROLE="Topic" CORE="Perm" CONTROLLED="" DESCRIPTION="" ORIGIN="Assigned" ORDER="31" Comments="" />
        <VARIABLE NAME="COVAL11" LABEL="Comment" TYPE="Char" LENGTH="200" ROLE="Topic" CORE="Perm" CONTROLLED="" DESCRIPTION="" ORIGIN="Assigned" ORDER="32" Comments="" />
        <VARIABLE NAME="COVAL12" LABEL="Comment" TYPE="Char" LENGTH="200" ROLE="Topic" CORE="Perm" CONTROLLED="" DESCRIPTION="" ORIGIN="Assigned" ORDER="33" Comments="" />
        <VARIABLE NAME="COVAL13" LABEL="Comment" TYPE="Char" LENGTH="200" ROLE="Topic" CORE="Perm" CONTROLLED="" DESCRIPTION="" ORIGIN="Assigned" ORDER="34" Comments="" />
        <VARIABLE NAME="COVAL14" LABEL="Comment" TYPE="Char" LENGTH="200" ROLE="Topic" CORE="Perm" CONTROLLED="" DESCRIPTION="" ORIGIN="Assigned" ORDER="35" Comments="" />
        <VARIABLE NAME="COVAL15" LABEL="Comment" TYPE="Char" LENGTH="200" ROLE="Topic" CORE="Perm" CONTROLLED="" DESCRIPTION="" ORIGIN="Assigned" ORDER="36" Comments="" />
        <VARIABLE NAME="COVAL16" LABEL="Comment" TYPE="Char" LENGTH="200" ROLE="Topic" CORE="Perm" CONTROLLED="" DESCRIPTION="" ORIGIN="Assigned" ORDER="37" Comments="" />
        <VARIABLE NAME="COVAL17" LABEL="Comment" TYPE="Char" LENGTH="200" ROLE="Topic" CORE="Perm" CONTROLLED="" DESCRIPTION="" ORIGIN="Assigned" ORDER="38" Comments="" />
        <VARIABLE NAME="COVAL18" LABEL="Comment" TYPE="Char" LENGTH="200" ROLE="Topic" CORE="Perm" CONTROLLED="" DESCRIPTION="" ORIGIN="Assigned" ORDER="39" Comments="" />
        <VARIABLE NAME="COVAL19" LABEL="Comment" TYPE="Char" LENGTH="200" ROLE="Topic" CORE="Perm" CONTROLLED="" DESCRIPTION="" ORIGIN="Assigned" ORDER="40" Comments="" />
        <VARIABLE NAME="COVAL20" LABEL="Comment" TYPE="Char" LENGTH="200" ROLE="Topic" CORE="Perm" CONTROLLED="" DESCRIPTION="" ORIGIN="Assigned" ORDER="41" Comments="" />
        <VARIABLE NAME="COEVAL" LABEL="Evaluator" TYPE="Char" LENGTH="20" ROLE="Record Qualifier" CORE="Perm" CONTROLLED="" DESCRIPTION="" ORIGIN="Assigned" ORDER="42" Comments="" />
        <VARIABLE NAME="CODTC" LABEL="Date/Time of Comment" TYPE="Char" LENGTH="20" ROLE="Timing" CORE="Perm" CONTROLLED="ISO 8601" DESCRIPTION="" ORIGIN="Assigned" ORDER="105" Comments="" />
        <VARIABLE NAME="CODY" LABEL="Study Day of Visit/Collection/Exam" TYPE="Num" LENGTH="8" ROLE="Timing" CORE="Perm" CONTROLLED="" DESCRIPTION="" ORIGIN="Derived" ORDER="108" Comments="Relative study day between &lt;CODTC&gt; and DM.RFSTDTC. Add 1 if the difference is greater than or equal to 0." />
      </VARIABLES>
      <KEYVARIABLES>
        <VARIABLE NAME="STUDYID" />
        <VARIABLE NAME="USUBJID" />
        <VARIABLE NAME="RDOMAIN" />
        <VARIABLE NAME="IDVAR" />
        <VARIABLE NAME="IDVARVAL" />
        <VARIABLE NAME="COREF" />
        <VARIABLE NAME="CODTC" />
      </KEYVARIABLES>
    </DOMAIN>
    <DOMAIN CODE="SE" NAME="Subject Elements" STRUCTURE="One record per actual Element per subject" CLASS="Special Purpose Domains" DESCRIPTION="">
      <VARIABLES>
        <VARIABLE NAME="STUDYID" LABEL="Study Identifier" TYPE="Char" LENGTH="20" ROLE="Identifier" CORE="Req" CONTROLLED="" DESCRIPTION="" ORIGIN="Assigned" ORDER="1" Comments="" />
        <VARIABLE NAME="DOMAIN" LABEL="Domain Abbreviation" TYPE="Char" LENGTH="2" ROLE="Identifier" CORE="Req" CONTROLLED="" DESCRIPTION="" ORIGIN="Assigned" ORDER="2" Comments="" />
        <VARIABLE NAME="USUBJID" LABEL="Unique Subject Identifier" TYPE="Char" LENGTH="25" ROLE="Identifier" CORE="Req" CONTROLLED="" DESCRIPTION="" ORIGIN="Derived" ORDER="4" Comments="Concatenate STUDYID, SITEID and SUBJID, separated by &quot;-&quot;." />
        <VARIABLE NAME="SESEQ" LABEL="Sequence Number" TYPE="Num" LENGTH="8" ROLE="Identifier" CORE="Req" CONTROLLED="" DESCRIPTION="" ORIGIN="Derived" ORDER="8" Comments="Sort by the key variables specified in the domain list. Assign SESEQ=1 to the first record and increment SESEQ by 1 for each additional record so that SESEQ is unique for each record within a USUBJID." />
        <VARIABLE NAME="ETCD" LABEL="Element Code" TYPE="Char" LENGTH="8" ROLE="Topic" CORE="Req" CONTROLLED="" DESCRIPTION="" ORIGIN="Assigned" ORDER="22" Comments="" />
        <VARIABLE NAME="ELEMENT" LABEL="Description of Element" TYPE="Char" LENGTH="200" ROLE="Synonym Qualifier" CORE="Perm" CONTROLLED="" DESCRIPTION="" ORIGIN="Assigned" ORDER="23" Comments="" />
        <VARIABLE NAME="SESTDTC" LABEL="Start Date/Time of Element" TYPE="Char" LENGTH="20" ROLE="Timing" CORE="Req" CONTROLLED="ISO 8601" DESCRIPTION="" ORIGIN="Assigned" ORDER="106" Comments="" />
        <VARIABLE NAME="SEENDTC" LABEL="End Date/Time of Element" TYPE="Char" LENGTH="20" ROLE="Timing" CORE="Exp" CONTROLLED="ISO 8601" DESCRIPTION="" ORIGIN="Assigned" ORDER="107" Comments="" />
        <VARIABLE NAME="SESTDY" LABEL="Study Day of Start of Observation" TYPE="Num" LENGTH="8" ROLE="Timing" CORE="Perm" CONTROLLED="" DESCRIPTION="" ORIGIN="Derived" ORDER="109" Comments="Relative study day between &lt;SESTDTC&gt; and DM.RFSTDTC. Add 1 if the difference is greater than or equal to 0." />
        <VARIABLE NAME="SEENDY" LABEL="Study Day of End of Observation" TYPE="Num" LENGTH="8" ROLE="Timing" CORE="Perm" CONTROLLED="" DESCRIPTION="" ORIGIN="Derived" ORDER="110" Comments="Relative study day between &lt;SEENDTC&gt; and DM.RFSTDTC. Add 1 if the difference is greater than or equal to 0." />
        <VARIABLE NAME="TAETORD" LABEL="Planned Order of Element within Arm" TYPE="Num" LENGTH="8" ROLE="Timing" CORE="Perm" CONTROLLED="" DESCRIPTION="" ORIGIN="Assigned" ORDER="103" Comments="" />
        <VARIABLE NAME="EPOCH" LABEL="Epoch" TYPE="Char" LENGTH="50" ROLE="Timing" CORE="Perm" CONTROLLED="" DESCRIPTION="" ORIGIN="Assigned" ORDER="104" Comments="" />
        <VARIABLE NAME="SEUPDES" LABEL="Description of Unplanned Element" TYPE="Char" LENGTH="200" ROLE="Synonym Qualifier" CORE="Perm" CONTROLLED="" DESCRIPTION="" ORIGIN="Assigned" ORDER="125" Comments="" />
      </VARIABLES>
      <KEYVARIABLES>
        <VARIABLE NAME="STUDYID" />
        <VARIABLE NAME="USUBJID" />
        <VARIABLE NAME="ELEMENT" />
        <VARIABLE NAME="SESTDTC" />
      </KEYVARIABLES>
    </DOMAIN>
    <DOMAIN CODE="SV" NAME="Subject Visits" STRUCTURE="One record per actual visit per subject" CLASS="Special Purpose Domains" DESCRIPTION="">
      <VARIABLES>
        <VARIABLE NAME="STUDYID" LABEL="Study Identifier" TYPE="Char" LENGTH="20" ROLE="Identifier" CORE="Req" CONTROLLED="" DESCRIPTION="" ORIGIN="Assigned" ORDER="1" Comments="" />
        <VARIABLE NAME="DOMAIN" LABEL="Domain Abbreviation" TYPE="Char" LENGTH="2" ROLE="Identifier" CORE="Req" CONTROLLED="" DESCRIPTION="" ORIGIN="Assigned" ORDER="2" Comments="" />
        <VARIABLE NAME="USUBJID" LABEL="Unique Subject Identifier" TYPE="Char" LENGTH="25" ROLE="Identifier" CORE="Req" CONTROLLED="" DESCRIPTION="" ORIGIN="Derived" ORDER="4" Comments="Concatenate STUDYID, SITEID and SUBJID, separated by &quot;-&quot;." />
        <VARIABLE NAME="VISITNUM" LABEL="Visit Number" TYPE="Num" LENGTH="8" ROLE="Topic" CORE="Req" CONTROLLED="" DESCRIPTION="" ORIGIN="Assigned" ORDER="100" Comments="" />
        <VARIABLE NAME="VISIT" LABEL="Visit Name" TYPE="Char" LENGTH="200" ROLE="Synonym Qualifier" CORE="Perm" CONTROLLED="" DESCRIPTION="" ORIGIN="Assigned" ORDER="101" Comments="" />
        <VARIABLE NAME="VISITDY" LABEL="Planned Study Day of Visit" TYPE="Num" LENGTH="8" ROLE="Timing" CORE="Perm" CONTROLLED="" DESCRIPTION="" ORIGIN="Protocol" ORDER="102" Comments="" />
        <VARIABLE NAME="SVDTC" LABEL="Date/Time of Collection" TYPE="Char" LENGTH="20" ROLE="Timing" CORE="Perm" CONTROLLED="ISO 8601" DESCRIPTION="" ORIGIN="Assigned" ORDER="105" Comments="" />
        <VARIABLE NAME="SVSTDTC" LABEL="Start Date/Time of Visit" TYPE="Char" LENGTH="20" ROLE="Timing" CORE="Exp" CONTROLLED="ISO 8601" DESCRIPTION="" ORIGIN="Derived" ORDER="106" Comments="Equal to first date/time of visit" />
        <VARIABLE NAME="SVENDTC" LABEL="End Date/Time of Visit" TYPE="Char" LENGTH="20" ROLE="Timing" CORE="Exp" CONTROLLED="ISO 8601" DESCRIPTION="" ORIGIN="Derived" ORDER="107" Comments="Equal to last date/time of visit" />
        <VARIABLE NAME="SVDY" LABEL="Study Day of Visit/Collection/Exam" TYPE="Num" LENGTH="8" ROLE="Timing" CORE="Perm" CONTROLLED="" DESCRIPTION="" ORIGIN="Derived" ORDER="108" Comments="Relative study day between &lt;SVDTC&gt; and DM.RFSTDTC. Add 1 if the difference is greater than or equal to 0." />
        <VARIABLE NAME="SVSTDY" LABEL="Study Day of Start of Visit" TYPE="Num" LENGTH="8" ROLE="Timing" CORE="Perm" CONTROLLED="" DESCRIPTION="" ORIGIN="Derived" ORDER="109" Comments="Relative study day between &lt;SVSTDTC&gt; and DM.RFSTDTC. Add 1 if the difference is greater than or equal to 0." />
        <VARIABLE NAME="SVENDY" LABEL="Study Day of End of Visit" TYPE="Num" LENGTH="8" ROLE="Timing" CORE="Perm" CONTROLLED="" DESCRIPTION="" ORIGIN="Derived" ORDER="110" Comments="Relative study day between &lt;SVENDTC&gt; and DM.RFSTDTC. Add 1 if the difference is greater than or equal to 0." />
        <VARIABLE NAME="SVUPDES" LABEL="Description of Unplanned Visit" TYPE="Char" LENGTH="200" ROLE="Synonym Qualifier" CORE="Perm" CONTROLLED="" DESCRIPTION="" ORIGIN="Assigned" ORDER="125" Comments="" />
      </VARIABLES>
      <KEYVARIABLES>
        <VARIABLE NAME="STUDYID" />
        <VARIABLE NAME="USUBJID" />
        <VARIABLE NAME="VISITNUM" />
        <VARIABLE NAME="VISIT" />
        <VARIABLE NAME="SVSTDTC" />
      </KEYVARIABLES>
    </DOMAIN>
    <DOMAIN CODE="CM" NAME="Concomitant Medications" STRUCTURE="One record per recorded medication occurrence or constant-dosing interval per subject" CLASS="Interventions" DESCRIPTION="">
      <VARIABLES>
        <VARIABLE NAME="STUDYID" LABEL="Study Identifier" TYPE="Char" LENGTH="20" ROLE="Identifier" CORE="Req" CONTROLLED="" DESCRIPTION="" ORIGIN="Assigned" ORDER="1" Comments="" />
        <VARIABLE NAME="DOMAIN" LABEL="Domain Abbreviation" TYPE="Char" LENGTH="2" ROLE="Identifier" CORE="Req" CONTROLLED="" DESCRIPTION="" ORIGIN="Assigned" ORDER="2" Comments="" />
        <VARIABLE NAME="USUBJID" LABEL="Unique Subject Identifier" TYPE="Char" LENGTH="25" ROLE="Identifier" CORE="Req" CONTROLLED="" DESCRIPTION="" ORIGIN="Derived" ORDER="4" Comments="Concatenate STUDYID, SITEID and SUBJID, separated by &quot;-&quot;." />
        <VARIABLE NAME="CMSEQ" LABEL="Sequence Number" TYPE="Num" LENGTH="8" ROLE="Identifier" CORE="Req" CONTROLLED="" DESCRIPTION="" ORIGIN="Derived" ORDER="8" Comments="Sort by the key variables specified in the domain list. Assign CMSEQ=1 to the first record and increment CMSEQ by 1 for each additional record so that CMSEQ is unique for each record within a USUBJID." />
        <VARIABLE NAME="CMGRPID" LABEL="Group ID" TYPE="Char" LENGTH="20" ROLE="Identifier" CORE="Perm" CONTROLLED="" DESCRIPTION="" ORIGIN="Assigned" ORDER="9" Comments="" />
        <VARIABLE NAME="CMSPID" LABEL="Sponsor-Defined Identifier" TYPE="Char" LENGTH="20" ROLE="Identifier" CORE="Perm" CONTROLLED="" DESCRIPTION="" ORIGIN="Assigned" ORDER="11" Comments="" />
        <VARIABLE NAME="CMTRT" LABEL="Reported Name of Drug, Med, or Therapy" TYPE="Char" LENGTH="200" ROLE="Topic" CORE="Req" CONTROLLED="" DESCRIPTION="" ORIGIN="Assigned" ORDER="20" Comments="" />
        <VARIABLE NAME="CMMODIFY" LABEL="Modified Reported Name" TYPE="Char" LENGTH="200" ROLE="Synonym Qualifier" CORE="Perm" CONTROLLED="" DESCRIPTION="" ORIGIN="Assigned" ORDER="21" Comments="" />
        <VARIABLE NAME="CMDECOD" LABEL="Standardized Medication Name" TYPE="Char" LENGTH="200" ROLE="Synonym Qualifier" CORE="Perm" CONTROLLED="(DRUGDICT)" DESCRIPTION="" ORIGIN="Assigned" ORDER="22" Comments="WHODRUG Version 2010.09" />
        <VARIABLE NAME="CMCAT" LABEL="Category for Medication" TYPE="Char" LENGTH="200" ROLE="Grouping Qualifier" CORE="Perm" CONTROLLED="" DESCRIPTION="" ORIGIN="Assigned" ORDER="23" Comments="" />
        <VARIABLE NAME="CMSCAT" LABEL="Subcategory for Medication" TYPE="Char" LENGTH="200" ROLE="Grouping Qualifier" CORE="Perm" CONTROLLED="" DESCRIPTION="" ORIGIN="Assigned" ORDER="24" Comments="" />
        <VARIABLE NAME="CMPRESP" LABEL="CM Pre-Specified" TYPE="Char" LENGTH="1" ROLE="Record Qualifier" CORE="Perm" CONTROLLED="(NY)" DESCRIPTION="" ORIGIN="Assigned" ORDER="25" Comments="" />
        <VARIABLE NAME="CMOCCUR" LABEL="CM Occurrence" TYPE="Char" LENGTH="1" ROLE="Record Qualifier" CORE="Perm" CONTROLLED="(NY)" DESCRIPTION="" ORIGIN="Assigned" ORDER="26" Comments="" />
        <VARIABLE NAME="CMSTAT" LABEL="Completion Status" TYPE="Char" LENGTH="8" ROLE="Record Qualifier" CORE="Perm" CONTROLLED="(ND)" DESCRIPTION="" ORIGIN="Assigned" ORDER="27" Comments="" />
        <VARIABLE NAME="CMREASND" LABEL="Reason Medication Not Collected" TYPE="Char" LENGTH="200" ROLE="Record Qualifier" CORE="Perm" CONTROLLED="" DESCRIPTION="" ORIGIN="Assigned" ORDER="28" Comments="" />
        <VARIABLE NAME="CMINDC" LABEL="Indication" TYPE="Char" LENGTH="200" ROLE="Record Qualifier" CORE="Perm" CONTROLLED="" DESCRIPTION="" ORIGIN="Assigned" ORDER="29" Comments="" />
        <VARIABLE NAME="CMCLAS" LABEL="Medication Class" TYPE="Char" LENGTH="200" ROLE="Variable Qualifier" CORE="Perm" CONTROLLED="" DESCRIPTION="" ORIGIN="Assigned" ORDER="30" Comments="WHODRUG Version 2010.09" />
        <VARIABLE NAME="CMCLASCD" LABEL="Medication Class Code" TYPE="Char" LENGTH="8" ROLE="Variable Qualifier" CORE="Perm" CONTROLLED="" DESCRIPTION="" ORIGIN="Assigned" ORDER="31" Comments="WHODRUG Version 2010.09" />
        <VARIABLE NAME="CMDOSE" LABEL="Dose per Administration" TYPE="Num" LENGTH="8" ROLE="Record Qualifier" CORE="Perm" CONTROLLED="" DESCRIPTION="" ORIGIN="Assigned" ORDER="32" Comments="" />
        <VARIABLE NAME="CMDOSTXT" LABEL="Dose Description" TYPE="Char" LENGTH="200" ROLE="Record Qualifier" CORE="Perm" CONTROLLED="" DESCRIPTION="" ORIGIN="Assigned" ORDER="33" Comments="" />
        <VARIABLE NAME="CMDOSU" LABEL="Dose Units" TYPE="Char" LENGTH="20" ROLE="Variable Qualifier" CORE="Perm" CONTROLLED="(UNIT)" DESCRIPTION="" ORIGIN="Assigned" ORDER="34" Comments="" />
        <VARIABLE NAME="CMDOSFRM" LABEL="Dose Form" TYPE="Char" LENGTH="200" ROLE="Variable Qualifier" CORE="Perm" CONTROLLED="(FRM)" DESCRIPTION="" ORIGIN="Assigned" ORDER="35" Comments="" />
        <VARIABLE NAME="CMDOSFRQ" LABEL="Dosing Frequency per Interval" TYPE="Char" LENGTH="50" ROLE="Variable Qualifier" CORE="Perm" CONTROLLED="(FREQ)" DESCRIPTION="" ORIGIN="Assigned" ORDER="36" Comments="" />
        <VARIABLE NAME="CMDOSTOT" LABEL="Total Daily Dose" TYPE="Num" LENGTH="8" ROLE="Record Qualifier" CORE="Perm" CONTROLLED="" DESCRIPTION="" ORIGIN="Assigned" ORDER="37" Comments="" />
        <VARIABLE NAME="CMDOSRGM" LABEL="Intended Dose Regimen" TYPE="Char" LENGTH="50" ROLE="Variable Qualifier" CORE="Perm" CONTROLLED="" DESCRIPTION="" ORIGIN="Assigned" ORDER="38" Comments="" />
        <VARIABLE NAME="CMROUTE" LABEL="Route of Administration" TYPE="Char" LENGTH="50" ROLE="Variable Qualifier" CORE="Perm" CONTROLLED="(ROUTE)" DESCRIPTION="" ORIGIN="Assigned" ORDER="39" Comments="" />
        <VARIABLE NAME="CMSTDTC" LABEL="Start Date/Time of Medication" TYPE="Char" LENGTH="20" ROLE="Timing" CORE="Perm" CONTROLLED="ISO 8601" DESCRIPTION="" ORIGIN="Assigned" ORDER="106" Comments="" />
        <VARIABLE NAME="CMENDTC" LABEL="End Date/Time of Medication" TYPE="Char" LENGTH="20" ROLE="Timing" CORE="Perm" CONTROLLED="ISO 8601" DESCRIPTION="" ORIGIN="Assigned" ORDER="107" Comments="" />
        <VARIABLE NAME="CMSTDY" LABEL="Study Day of Start of Medication" TYPE="Num" LENGTH="8" ROLE="Timing" CORE="Perm" CONTROLLED="" DESCRIPTION="" ORIGIN="Derived" ORDER="109" Comments="Relative study day between &lt;CMSTDTC&gt; and DM.RFSTDTC. Add 1 if the difference is greater than or equal to 0." />
        <VARIABLE NAME="CMENDY" LABEL="Study Day of End of Medication" TYPE="Num" LENGTH="8" ROLE="Timing" CORE="Perm" CONTROLLED="" DESCRIPTION="" ORIGIN="Derived" ORDER="110" Comments="Relative study day between &lt;CMENDTC&gt; and DM.RFSTDTC. Add 1 if the difference is greater than or equal to 0." />
        <VARIABLE NAME="CMDUR" LABEL="Duration of Medication" TYPE="Char" LENGTH="50" ROLE="Timing" CORE="Perm" CONTROLLED="ISO 8601" DESCRIPTION="" ORIGIN="Assigned" ORDER="111" Comments="" />
        <VARIABLE NAME="CMSTRF" LABEL="Start Relative to Reference Period" TYPE="Char" LENGTH="12" ROLE="Timing" CORE="Perm" CONTROLLED="(STENRF)" DESCRIPTION="" ORIGIN="Assigned" ORDER="117" Comments="" />
        <VARIABLE NAME="CMENRF" LABEL="End Relative to Reference Period" TYPE="Char" LENGTH="12" ROLE="Timing" CORE="Perm" CONTROLLED="(STENRF)" DESCRIPTION="" ORIGIN="Assigned" ORDER="118" Comments="" />
        <VARIABLE NAME="CMSTRTPT" LABEL="Start Relative to Reference Time Point" TYPE="Char" LENGTH="12" ROLE="Timing" CORE="Perm" CONTROLLED="(STENRF)" DESCRIPTION="" ORIGIN="Assigned" ORDER="120" Comments="" />
        <VARIABLE NAME="CMSTTPT" LABEL="Start Reference Time Point" TYPE="Char" LENGTH="200" ROLE="Timing" CORE="Perm" CONTROLLED="" DESCRIPTION="" ORIGIN="Assigned" ORDER="121" Comments="" />
        <VARIABLE NAME="CMENRTPT" LABEL="End Relative to Reference Time Point" TYPE="Char" LENGTH="12" ROLE="Timing" CORE="Perm" CONTROLLED="(STENRF)" DESCRIPTION="" ORIGIN="Assigned" ORDER="122" Comments="" />
        <VARIABLE NAME="CMENTPT" LABEL="End Reference Time Point" TYPE="Char" LENGTH="200" ROLE="Timing" CORE="Perm" CONTROLLED="" DESCRIPTION="" ORIGIN="Assigned" ORDER="123" Comments="" />
      </VARIABLES>
      <KEYVARIABLES>
        <VARIABLE NAME="STUDYID" />
        <VARIABLE NAME="USUBJID" />
        <VARIABLE NAME="CMSTDTC" />
        <VARIABLE NAME="CMTRT" />
      </KEYVARIABLES>
    </DOMAIN>
    <DOMAIN CODE="EX" NAME="Exposure" STRUCTURE="One record per constant dosing interval per subject" CLASS="Interventions" DESCRIPTION="">
      <VARIABLES>
        <VARIABLE NAME="STUDYID" LABEL="Study Identifier" TYPE="Char" LENGTH="20" ROLE="Identifier" CORE="Req" CONTROLLED="" DESCRIPTION="" ORIGIN="Assigned" ORDER="1" Comments="" />
        <VARIABLE NAME="DOMAIN" LABEL="Domain Abbreviation" TYPE="Char" LENGTH="2" ROLE="Identifier" CORE="Req" CONTROLLED="" DESCRIPTION="" ORIGIN="Assigned" ORDER="2" Comments="" />
        <VARIABLE NAME="USUBJID" LABEL="Unique Subject Identifier" TYPE="Char" LENGTH="25" ROLE="Identifier" CORE="Req" CONTROLLED="" DESCRIPTION="" ORIGIN="Derived" ORDER="4" Comments="Concatenate STUDYID, SITEID and SUBJID, separated by &quot;-&quot;." />
        <VARIABLE NAME="EXSEQ" LABEL="Sequence Number" TYPE="Num" LENGTH="8" ROLE="Identifier" CORE="Req" CONTROLLED="" DESCRIPTION="" ORIGIN="Derived" ORDER="8" Comments="Sort by the key variables specified in the domain list. Assign EXSEQ=1 to the first record and increment EXSEQ by 1 for each additional record so that EXSEQ is unique for each record within a USUBJID." />
        <VARIABLE NAME="EXGRPID" LABEL="Group ID" TYPE="Char" LENGTH="20" ROLE="Identifier" CORE="Perm" CONTROLLED="" DESCRIPTION="" ORIGIN="Assigned" ORDER="9" Comments="" />
        <VARIABLE NAME="EXREFID" LABEL="Reference ID" TYPE="Char" LENGTH="20" ROLE="Identifier" CORE="Perm" CONTROLLED="" DESCRIPTION="" ORIGIN="Assigned" ORDER="10" Comments="" />
        <VARIABLE NAME="EXSPID" LABEL="Sponsor-Defined Identifier" TYPE="Char" LENGTH="20" ROLE="Identifier" CORE="Perm" CONTROLLED="" DESCRIPTION="" ORIGIN="Assigned" ORDER="11" Comments="" />
        <VARIABLE NAME="EXTRT" LABEL="Name of Actual Treatment" TYPE="Char" LENGTH="200" ROLE="Topic" CORE="Req" CONTROLLED="" DESCRIPTION="" ORIGIN="Assigned" ORDER="20" Comments="" />
        <VARIABLE NAME="EXCAT" LABEL="Category for Treatment" TYPE="Char" LENGTH="200" ROLE="Grouping Qualifier" CORE="Perm" CONTROLLED="" DESCRIPTION="" ORIGIN="Assigned" ORDER="23" Comments="" />
        <VARIABLE NAME="EXSCAT" LABEL="Subcategory for Treatment" TYPE="Char" LENGTH="200" ROLE="Grouping Qualifier" CORE="Perm" CONTROLLED="" DESCRIPTION="" ORIGIN="Assigned" ORDER="24" Comments="" />
        <VARIABLE NAME="EXDOSE" LABEL="Dose per Administration" TYPE="Num" LENGTH="8" ROLE="Record Qualifier" CORE="Exp" CONTROLLED="" DESCRIPTION="" ORIGIN="Assigned" ORDER="32" Comments="" />
        <VARIABLE NAME="EXDOSTXT" LABEL="Dose Description" TYPE="Char" LENGTH="200" ROLE="Record Qualifier" CORE="Perm" CONTROLLED="" DESCRIPTION="" ORIGIN="Assigned" ORDER="33" Comments="" />
        <VARIABLE NAME="EXDOSU" LABEL="Dose Units" TYPE="Char" LENGTH="20" ROLE="Variable Qualifier" CORE="Exp" CONTROLLED="(UNIT)" DESCRIPTION="" ORIGIN="Protocol" ORDER="34" Comments="" />
        <VARIABLE NAME="EXDOSFRM" LABEL="Dose Form" TYPE="Char" LENGTH="200" ROLE="Variable Qualifier" CORE="Exp" CONTROLLED="(FRM)" DESCRIPTION="" ORIGIN="Protocol" ORDER="35" Comments="" />
        <VARIABLE NAME="EXDOSFRQ" LABEL="Dosing Frequency per Interval" TYPE="Char" LENGTH="50" ROLE="Variable Qualifier" CORE="Perm" CONTROLLED="(FREQ)" DESCRIPTION="" ORIGIN="Protocol" ORDER="36" Comments="" />
        <VARIABLE NAME="EXDOSTOT" LABEL="Total Daily Dose" TYPE="Num" LENGTH="8" ROLE="Record Qualifier" CORE="Perm" CONTROLLED="" DESCRIPTION="" ORIGIN="Derived" ORDER="37" Comments="Derived from EXDOSE and EXDOSFRQ" />
        <VARIABLE NAME="EXDOSRGM" LABEL="Intended Dose Regimen" TYPE="Char" LENGTH="50" ROLE="Variable Qualifier" CORE="Perm" CONTROLLED="" DESCRIPTION="" ORIGIN="Protocol" ORDER="38" Comments="" />
        <VARIABLE NAME="EXROUTE" LABEL="Route of Administration" TYPE="Char" LENGTH="50" ROLE="Variable Qualifier" CORE="Perm" CONTROLLED="(ROUTE)" DESCRIPTION="" ORIGIN="Protocol" ORDER="39" Comments="" />
        <VARIABLE NAME="EXLOT" LABEL="Lot Number" TYPE="Char" LENGTH="50" ROLE="Record Qualifier" CORE="Perm" CONTROLLED="" DESCRIPTION="" ORIGIN="Assigned" ORDER="40" Comments="" />
        <VARIABLE NAME="EXLOC" LABEL="Location of Dose Administration" TYPE="Char" LENGTH="200" ROLE="Record Qualifier" CORE="Perm" CONTROLLED="(LOC)" DESCRIPTION="" ORIGIN="Protocol" ORDER="41" Comments="" />
        <VARIABLE NAME="EXTRTV" LABEL="Treatment Vehicle" TYPE="Char" LENGTH="200" ROLE="Record Qualifier" CORE="Perm" CONTROLLED="" DESCRIPTION="" ORIGIN="Protocol" ORDER="42" Comments="" />
        <VARIABLE NAME="EXVAMT" LABEL="Treatment Vehicle Amount" TYPE="Num" LENGTH="8" ROLE="Variable Qualifier" CORE="Perm" CONTROLLED="" DESCRIPTION="" ORIGIN="Protocol" ORDER="43" Comments="" />
        <VARIABLE NAME="EXVAMTU" LABEL="Treatment Vehicle Amount Units" TYPE="Char" LENGTH="20" ROLE="Variable Qualifier" CORE="Perm" CONTROLLED="(UNIT)" DESCRIPTION="" ORIGIN="Protocol" ORDER="44" Comments="" />
        <VARIABLE NAME="EXADJ" LABEL="Reason for Dose Adjustment" TYPE="Char" LENGTH="200" ROLE="Record Qualifier" CORE="Perm" CONTROLLED="" DESCRIPTION="" ORIGIN="Assigned" ORDER="45" Comments="" />
        <VARIABLE NAME="TAETORD" LABEL="Planned Order of Element within Arm" TYPE="Num" LENGTH="8" ROLE="Timing" CORE="Perm" CONTROLLED="" DESCRIPTION="" ORIGIN="Assigned" ORDER="103" Comments="" />
        <VARIABLE NAME="EPOCH" LABEL="Epoch" TYPE="Char" LENGTH="50" ROLE="Timing" CORE="Perm" CONTROLLED="" DESCRIPTION="" ORIGIN="Assigned" ORDER="104" Comments="" />
        <VARIABLE NAME="EXSTDTC" LABEL="Start Date/Time of Treatment" TYPE="Char" LENGTH="20" ROLE="Timing" CORE="Exp" CONTROLLED="ISO 8601" DESCRIPTION="" ORIGIN="Assigned" ORDER="106" Comments="" />
        <VARIABLE NAME="EXENDTC" LABEL="End Date/Time of Treatment" TYPE="Char" LENGTH="20" ROLE="Timing" CORE="Perm" CONTROLLED="ISO 8601" DESCRIPTION="" ORIGIN="Assigned" ORDER="107" Comments="" />
        <VARIABLE NAME="EXSTDY" LABEL="Study Day of Start of Treatment" TYPE="Num" LENGTH="8" ROLE="Timing" CORE="Perm" CONTROLLED="" DESCRIPTION="" ORIGIN="Derived" ORDER="109" Comments="Relative study day between &lt;EXSTDTC&gt; and DM.RFSTDTC. Add 1 if the difference is greater than or equal to 0." />
        <VARIABLE NAME="EXENDY" LABEL="Study Day of End of Treatment" TYPE="Num" LENGTH="8" ROLE="Timing" CORE="Perm" CONTROLLED="" DESCRIPTION="" ORIGIN="Derived" ORDER="110" Comments="Relative study day between &lt;EXENDTC&gt; and DM.RFSTDTC. Add 1 if the difference is greater than or equal to 0." />
        <VARIABLE NAME="EXDUR" LABEL="Duration of Treatment" TYPE="Char" LENGTH="50" ROLE="Timing" CORE="Perm" CONTROLLED="ISO 8601" DESCRIPTION="" ORIGIN="Assigned" ORDER="111" Comments="" />
        <VARIABLE NAME="EXTPT" LABEL="Planned Time Point Name" TYPE="Char" LENGTH="200" ROLE="Timing" CORE="Perm" CONTROLLED="" DESCRIPTION="" ORIGIN="Assigned" ORDER="112" Comments="" />
        <VARIABLE NAME="EXTPTNUM" LABEL="Planned Time Point Number" TYPE="Num" LENGTH="8" ROLE="Timing" CORE="Perm" CONTROLLED="" DESCRIPTION="" ORIGIN="Assigned" ORDER="113" Comments="" />
        <VARIABLE NAME="EXELTM" LABEL="Planned Elapsed Time from Time Point Ref" TYPE="Char" LENGTH="20" ROLE="Timing" CORE="Perm" CONTROLLED="ISO 8601" DESCRIPTION="" ORIGIN="Protocol" ORDER="114" Comments="" />
        <VARIABLE NAME="EXTPTREF" LABEL="Time Point Reference" TYPE="Char" LENGTH="200" ROLE="Timing" CORE="Perm" CONTROLLED="" DESCRIPTION="" ORIGIN="Assigned" ORDER="115" Comments="" />
      </VARIABLES>
      <KEYVARIABLES>
        <VARIABLE NAME="STUDYID" />
        <VARIABLE NAME="USUBJID" />
        <VARIABLE NAME="EXTPTNUM" />
        <VARIABLE NAME="EXTPT" />
        <VARIABLE NAME="EXSTDTC" />
        <VARIABLE NAME="EXTRT" />
      </KEYVARIABLES>
    </DOMAIN>
    <DOMAIN CODE="SU" NAME="Substance Use" STRUCTURE="One record per substance type per reported occurrence per subject" CLASS="Interventions" DESCRIPTION="">
      <VARIABLES>
        <VARIABLE NAME="STUDYID" LABEL="Study Identifier" TYPE="Char" LENGTH="20" ROLE="Identifier" CORE="Req" CONTROLLED="" DESCRIPTION="" ORIGIN="Assigned" ORDER="1" Comments="" />
        <VARIABLE NAME="DOMAIN" LABEL="Domain Abbreviation" TYPE="Char" LENGTH="2" ROLE="Identifier" CORE="Req" CONTROLLED="" DESCRIPTION="" ORIGIN="Assigned" ORDER="2" Comments="" />
        <VARIABLE NAME="USUBJID" LABEL="Unique Subject Identifier" TYPE="Char" LENGTH="25" ROLE="Identifier" CORE="Req" CONTROLLED="" DESCRIPTION="" ORIGIN="Derived" ORDER="4" Comments="Concatenate STUDYID, SITEID and SUBJID, separated by &quot;-&quot;." />
        <VARIABLE NAME="SUSEQ" LABEL="Sequence Number" TYPE="Num" LENGTH="8" ROLE="Identifier" CORE="Req" CONTROLLED="" DESCRIPTION="" ORIGIN="Derived" ORDER="8" Comments="Sort by the key variables specified in the domain list. Assign SUSEQ=1 to the first record and increment SUSEQ by 1 for each additional record so that SUSEQ is unique for each record within a USUBJID." />
        <VARIABLE NAME="SUGRPID" LABEL="Group ID" TYPE="Char" LENGTH="20" ROLE="Identifier" CORE="Perm" CONTROLLED="" DESCRIPTION="" ORIGIN="Assigned" ORDER="9" Comments="" />
        <VARIABLE NAME="SUSPID" LABEL="Sponsor-Defined Identifier" TYPE="Char" LENGTH="20" ROLE="Identifier" CORE="Perm" CONTROLLED="" DESCRIPTION="" ORIGIN="Assigned" ORDER="11" Comments="" />
        <VARIABLE NAME="SUTRT" LABEL="Reported Name of Substance" TYPE="Char" LENGTH="200" ROLE="Topic" CORE="Req" CONTROLLED="" DESCRIPTION="" ORIGIN="Assigned" ORDER="20" Comments="" />
        <VARIABLE NAME="SUMODIFY" LABEL="Modified Substance Name" TYPE="Char" LENGTH="200" ROLE="Synonym Qualifier" CORE="Perm" CONTROLLED="" DESCRIPTION="" ORIGIN="Assigned" ORDER="21" Comments="" />
        <VARIABLE NAME="SUDECOD" LABEL="Standardized Substance Name" TYPE="Char" LENGTH="200" ROLE="Synonym Qualifier" CORE="Perm" CONTROLLED="" DESCRIPTION="" ORIGIN="Assigned" ORDER="22" Comments="" />
        <VARIABLE NAME="SUCAT" LABEL="Category for Substance Use" TYPE="Char" LENGTH="200" ROLE="Grouping Qualifier" CORE="Perm" CONTROLLED="" DESCRIPTION="" ORIGIN="Assigned" ORDER="23" Comments="" />
        <VARIABLE NAME="SUSCAT" LABEL="Subcategory for Substance Use" TYPE="Char" LENGTH="200" ROLE="Grouping Qualifier" CORE="Perm" CONTROLLED="" DESCRIPTION="" ORIGIN="Assigned" ORDER="24" Comments="" />
        <VARIABLE NAME="SUPRESP" LABEL="SU Pre-Specified" TYPE="Char" LENGTH="1" ROLE="Record Qualifier" CORE="Perm" CONTROLLED="(NY)" DESCRIPTION="" ORIGIN="Assigned" ORDER="25" Comments="" />
        <VARIABLE NAME="SUOCCUR" LABEL="SU Occurrence" TYPE="Char" LENGTH="1" ROLE="Record Qualifier" CORE="Perm" CONTROLLED="(NY)" DESCRIPTION="" ORIGIN="Assigned" ORDER="26" Comments="" />
        <VARIABLE NAME="SUSTAT" LABEL="Completion Status" TYPE="Char" LENGTH="8" ROLE="Record Qualifier" CORE="Perm" CONTROLLED="(ND)" DESCRIPTION="" ORIGIN="Assigned" ORDER="27" Comments="" />
        <VARIABLE NAME="SUREASND" LABEL="Reason Substance Use Not Collected" TYPE="Char" LENGTH="200" ROLE="Record Qualifier" CORE="Perm" CONTROLLED="" DESCRIPTION="" ORIGIN="Assigned" ORDER="28" Comments="" />
        <VARIABLE NAME="SUCLAS" LABEL="Substance Use Class" TYPE="Char" LENGTH="200" ROLE="Variable Qualifier" CORE="Perm" CONTROLLED="" DESCRIPTION="" ORIGIN="Assigned" ORDER="30" Comments="" />
        <VARIABLE NAME="SUCLASCD" LABEL="Substance Use Class Code" TYPE="Char" LENGTH="8" ROLE="Variable Qualifier" CORE="Perm" CONTROLLED="" DESCRIPTION="" ORIGIN="Assigned" ORDER="31" Comments="" />
        <VARIABLE NAME="SUDOSE" LABEL="Substance Use Consumption" TYPE="Num" LENGTH="8" ROLE="Record Qualifier" CORE="Perm" CONTROLLED="" DESCRIPTION="" ORIGIN="Assigned" ORDER="32" Comments="" />
        <VARIABLE NAME="SUDOSTXT" LABEL="Substance Use Consumption Text" TYPE="Char" LENGTH="200" ROLE="Record Qualifier" CORE="Perm" CONTROLLED="" DESCRIPTION="" ORIGIN="Assigned" ORDER="33" Comments="" />
        <VARIABLE NAME="SUDOSU" LABEL="Consumption Units" TYPE="Char" LENGTH="20" ROLE="Variable Qualifier" CORE="Perm" CONTROLLED="(UNIT)" DESCRIPTION="" ORIGIN="Assigned" ORDER="34" Comments="" />
        <VARIABLE NAME="SUDOSFRM" LABEL="Dose Form" TYPE="Char" LENGTH="200" ROLE="Record Qualifier" CORE="Perm" CONTROLLED="" DESCRIPTION="" ORIGIN="Assigned" ORDER="35" Comments="" />
        <VARIABLE NAME="SUDOSFRQ" LABEL="Use Frequency Per Interval" TYPE="Char" LENGTH="50" ROLE="Variable Qualifier" CORE="Perm" CONTROLLED="(FREQ)" DESCRIPTION="" ORIGIN="Assigned" ORDER="36" Comments="" />
        <VARIABLE NAME="SUDOSTOT" LABEL="Total Daily Consumption" TYPE="Num" LENGTH="8" ROLE="Record Qualifier" CORE="Perm" CONTROLLED="" DESCRIPTION="" ORIGIN="Assigned" ORDER="37" Comments="" />
        <VARIABLE NAME="SUROUTE" LABEL="Route of Administration" TYPE="Char" LENGTH="50" ROLE="Variable Qualifier" CORE="Perm" CONTROLLED="(ROUTE)" DESCRIPTION="" ORIGIN="Assigned" ORDER="39" Comments="" />
        <VARIABLE NAME="SUSTDTC" LABEL="Start Date/Time of Substance Use" TYPE="Char" LENGTH="20" ROLE="Timing" CORE="Perm" CONTROLLED="ISO 8601" DESCRIPTION="" ORIGIN="Assigned" ORDER="106" Comments="" />
        <VARIABLE NAME="SUENDTC" LABEL="End Date/Time of Substance Use" TYPE="Char" LENGTH="20" ROLE="Timing" CORE="Perm" CONTROLLED="ISO 8601" DESCRIPTION="" ORIGIN="Assigned" ORDER="107" Comments="" />
        <VARIABLE NAME="SUSTDY" LABEL="Study Day of Start of Substance Use" TYPE="Num" LENGTH="8" ROLE="Timing" CORE="Perm" CONTROLLED="" DESCRIPTION="" ORIGIN="Derived" ORDER="109" Comments="Relative study day between &lt;SUSTDTC&gt; and DM.RFSTDTC. Add 1 if the difference is greater than or equal to 0." />
        <VARIABLE NAME="SUENDY" LABEL="Study Day of End of Substance Use" TYPE="Num" LENGTH="8" ROLE="Timing" CORE="Perm" CONTROLLED="" DESCRIPTION="" ORIGIN="Derived" ORDER="110" Comments="Relative study day between &lt;SUENDTC&gt; and DM.RFSTDTC. Add 1 if the difference is greater than or equal to 0." />
        <VARIABLE NAME="SUDUR" LABEL="Duration of Substance Use" TYPE="Char" LENGTH="50" ROLE="Timing" CORE="Perm" CONTROLLED="ISO 8601" DESCRIPTION="" ORIGIN="Assigned" ORDER="111" Comments="" />
        <VARIABLE NAME="SUSTRF" LABEL="Start Relative to Reference Period" TYPE="Char" LENGTH="12" ROLE="Timing" CORE="Perm" CONTROLLED="(STENRF)" DESCRIPTION="" ORIGIN="Assigned" ORDER="117" Comments="" />
        <VARIABLE NAME="SUENRF" LABEL="End Relative to Reference Period" TYPE="Char" LENGTH="12" ROLE="Timing" CORE="Perm" CONTROLLED="(STENRF)" DESCRIPTION="" ORIGIN="Assigned" ORDER="118" Comments="" />
        <VARIABLE NAME="SUSTRTPT" LABEL="Start Relative to Reference Time Point" TYPE="Char" LENGTH="12" ROLE="Timing" CORE="Perm" CONTROLLED="(STENRF)" DESCRIPTION="" ORIGIN="Assigned" ORDER="120" Comments="" />
        <VARIABLE NAME="SUSTTPT" LABEL="Start Reference Time Point" TYPE="Char" LENGTH="200" ROLE="Timing" CORE="Perm" CONTROLLED="" DESCRIPTION="" ORIGIN="Assigned" ORDER="121" Comments="" />
        <VARIABLE NAME="SUENRTPT" LABEL="End Relative to Reference Time Point" TYPE="Char" LENGTH="12" ROLE="Timing" CORE="Perm" CONTROLLED="(STENRF)" DESCRIPTION="" ORIGIN="Assigned" ORDER="122" Comments="" />
        <VARIABLE NAME="SUENTPT" LABEL="End Reference Time Point" TYPE="Char" LENGTH="200" ROLE="Timing" CORE="Perm" CONTROLLED="" DESCRIPTION="" ORIGIN="Assigned" ORDER="123" Comments="" />
      </VARIABLES>
      <KEYVARIABLES>
        <VARIABLE NAME="STUDYID" />
        <VARIABLE NAME="USUBJID" />
        <VARIABLE NAME="SUSTDTC" />
        <VARIABLE NAME="SUTRT" />
      </KEYVARIABLES>
    </DOMAIN>
    <DOMAIN CODE="ML" NAME="Meal Data" STRUCTURE="One record per subject per meal time" CLASS="Interventions" DESCRIPTION="">
      <VARIABLES>
        <VARIABLE NAME="STUDYID" LABEL="Study Identifier" TYPE="Char" LENGTH="20" ROLE="Identifier" CORE="Req" CONTROLLED="" DESCRIPTION="" ORIGIN="Assigned" ORDER="1" Comments="" />
        <VARIABLE NAME="DOMAIN" LABEL="Domain Abbreviation" TYPE="Char" LENGTH="2" ROLE="Identifier" CORE="Req" CONTROLLED="" DESCRIPTION="" ORIGIN="Assigned" ORDER="2" Comments="" />
        <VARIABLE NAME="USUBJID" LABEL="Unique Subject Identifier" TYPE="Char" LENGTH="25" ROLE="Identifier" CORE="Req" CONTROLLED="" DESCRIPTION="" ORIGIN="Derived" ORDER="4" Comments="Concatenate STUDYID, SITEID and SUBJID, separated by &quot;-&quot;." />
        <VARIABLE NAME="MLSEQ" LABEL="Sequence Number" TYPE="Num" LENGTH="8" ROLE="Identifier" CORE="Req" CONTROLLED="" DESCRIPTION="" ORIGIN="Derived" ORDER="8" Comments="Sort by the key variables specified in the domain list. Assign MLSEQ=1 to the first record and increment MLSEQ by 1 for each additional record so that MLSEQ is unique for each record within a USUBJID." />
        <VARIABLE NAME="MLTRT" LABEL="Name of Scheduled Meal" TYPE="Char" LENGTH="200" ROLE="Topic" CORE="" CONTROLLED="" DESCRIPTION="" ORIGIN="Assigned" ORDER="20" Comments="" />
        <VARIABLE NAME="MLSTAT" LABEL="Completion Status" TYPE="Char" LENGTH="8" ROLE="Record Qualifier" CORE="" CONTROLLED="ND" DESCRIPTION="" ORIGIN="Assigned" ORDER="27" Comments="" />
        <VARIABLE NAME="MLDOSTXT" LABEL="Amount of Meal Consumed" TYPE="Char" LENGTH="200" ROLE="Record Qualifier" CORE="" CONTROLLED="" DESCRIPTION="" ORIGIN="Assigned" ORDER="33" Comments="" />
        <VARIABLE NAME="VISITNUM" LABEL="Visit Number" TYPE="Num" LENGTH="8" ROLE="Timing" CORE="" CONTROLLED="" DESCRIPTION="" ORIGIN="Assigned" ORDER="100" Comments="" />
        <VARIABLE NAME="VISIT" LABEL="Visit Name" TYPE="Char" LENGTH="200" ROLE="Timing" CORE="" CONTROLLED="" DESCRIPTION="" ORIGIN="Assigned" ORDER="101" Comments="" />
        <VARIABLE NAME="VISITDY" LABEL="Planned Study Day of Visit" TYPE="Num" LENGTH="8" ROLE="Timing" CORE="" CONTROLLED="" DESCRIPTION="" ORIGIN="Protocol" ORDER="102" Comments="" />
        <VARIABLE NAME="MLSTDTC" LABEL="Start Date/Time of the Meal" TYPE="Char" LENGTH="20" ROLE="Timing" CORE="" CONTROLLED="" DESCRIPTION="" ORIGIN="Assigned" ORDER="106" Comments="" />
        <VARIABLE NAME="MLENDTC" LABEL="End Date/Time of the Meal" TYPE="Char" LENGTH="20" ROLE="Timing" CORE="" CONTROLLED="" DESCRIPTION="" ORIGIN="Assigned" ORDER="107" Comments="" />
        <VARIABLE NAME="MLSTDY" LABEL="Study Day of Start of Meal" TYPE="Num" LENGTH="8" ROLE="Timing" CORE="" CONTROLLED="" DESCRIPTION="" ORIGIN="Derived" ORDER="109" Comments="Relative study day between &lt;MLSTDTC&gt; and DM.RFSTDTC. Add 1 if the difference is greater than or equal to 0." />
        <VARIABLE NAME="MLENDY" LABEL="Study Day of End of Meal" TYPE="Num" LENGTH="8" ROLE="Timing" CORE="" CONTROLLED="" DESCRIPTION="" ORIGIN="Derived" ORDER="110" Comments="Relative study day between &lt;MLENDTC&gt; and DM.RFSTDTC. Add 1 if the difference is greater than or equal to 0." />
      </VARIABLES>
      <KEYVARIABLES>
        <VARIABLE NAME="STUDYID" />
        <VARIABLE NAME="USUBJID" />
        <VARIABLE NAME="MLSTDTC" />
        <VARIABLE NAME="MLTRT" />
      </KEYVARIABLES>
    </DOMAIN>
    <DOMAIN CODE="AE" NAME="Adverse Events" STRUCTURE="One record per adverse event per subject" CLASS="Events" DESCRIPTION="">
      <VARIABLES>
        <VARIABLE NAME="STUDYID" LABEL="Study Identifier" TYPE="Char" LENGTH="20" ROLE="Identifier" CORE="Req" CONTROLLED="" DESCRIPTION="" ORIGIN="Assigned" ORDER="1" Comments="" />
        <VARIABLE NAME="DOMAIN" LABEL="Domain Abbreviation" TYPE="Char" LENGTH="2" ROLE="Identifier" CORE="Req" CONTROLLED="" DESCRIPTION="" ORIGIN="Assigned" ORDER="2" Comments="" />
        <VARIABLE NAME="USUBJID" LABEL="Unique Subject Identifier" TYPE="Char" LENGTH="25" ROLE="Identifier" CORE="Req" CONTROLLED="" DESCRIPTION="" ORIGIN="Derived" ORDER="4" Comments="Concatenate STUDYID, SITEID and SUBJID, separated by &quot;-&quot;." />
        <VARIABLE NAME="AESEQ" LABEL="Sequence Number" TYPE="Num" LENGTH="8" ROLE="Identifier" CORE="Req" CONTROLLED="" DESCRIPTION="" ORIGIN="Derived" ORDER="8" Comments="Sort by the key variables specified in the domain list. Assign AESEQ=1 to the first record and increment AESEQ by 1 for each additional record so that AESEQ is unique for each record within a USUBJID." />
        <VARIABLE NAME="AEGRPID" LABEL="Group ID" TYPE="Char" LENGTH="20" ROLE="Identifier" CORE="Perm" CONTROLLED="" DESCRIPTION="" ORIGIN="Assigned" ORDER="9" Comments="" />
        <VARIABLE NAME="AEREFID" LABEL="Reference ID" TYPE="Char" LENGTH="20" ROLE="Identifier" CORE="Perm" CONTROLLED="" DESCRIPTION="" ORIGIN="Assigned" ORDER="10" Comments="" />
        <VARIABLE NAME="AESPID" LABEL="Sponsor-Defined Identifier" TYPE="Char" LENGTH="20" ROLE="Identifier" CORE="Perm" CONTROLLED="" DESCRIPTION="" ORIGIN="Assigned" ORDER="11" Comments="" />
        <VARIABLE NAME="AETERM" LABEL="Reported Term for the Adverse Event" TYPE="Char" LENGTH="200" ROLE="Topic" CORE="Req" CONTROLLED="" DESCRIPTION="" ORIGIN="Assigned" ORDER="20" Comments="" />
        <VARIABLE NAME="AEMODIFY" LABEL="Modified Reported Term" TYPE="Char" LENGTH="200" ROLE="Synonym Qualifier" CORE="Perm" CONTROLLED="" DESCRIPTION="" ORIGIN="Assigned" ORDER="21" Comments="" />
        <VARIABLE NAME="AELLT" LABEL="Lowest Level Term" TYPE="Char" LENGTH="200" ROLE="Variable Qualifier" CORE="Exp" CONTROLLED="" DESCRIPTION="" ORIGIN="Assigned" ORDER="22" Comments="MedDRA version 13.1" />
        <VARIABLE NAME="AELLTCD" LABEL="Lowest Level Term Code" TYPE="Num" LENGTH="8" ROLE="Variable Qualifier" CORE="Exp" CONTROLLED="" DESCRIPTION="" ORIGIN="Assigned" ORDER="23" Comments="MedDRA version 13.1" />
        <VARIABLE NAME="AEDECOD" LABEL="Dictionary-Derived Term" TYPE="Char" LENGTH="200" ROLE="Synonym Qualifier" CORE="Req" CONTROLLED="(EVENDICT)" DESCRIPTION="" ORIGIN="Assigned" ORDER="24" Comments="MedDRA version 13.1" />
        <VARIABLE NAME="AEPTCD" LABEL="Preferred Term Code" TYPE="Num" LENGTH="8" ROLE="Variable Qualifier" CORE="Exp" CONTROLLED="" DESCRIPTION="" ORIGIN="Assigned" ORDER="25" Comments="MedDRA version 13.1" />
        <VARIABLE NAME="AEHLT" LABEL="High Level Term" TYPE="Char" LENGTH="200" ROLE="Variable Qualifier" CORE="Exp" CONTROLLED="" DESCRIPTION="" ORIGIN="Assigned" ORDER="26" Comments="MedDRA version 13.1" />
        <VARIABLE NAME="AEHLTCD" LABEL="High Level Term Code" TYPE="Num" LENGTH="8" ROLE="Variable Qualifier" CORE="Exp" CONTROLLED="" DESCRIPTION="" ORIGIN="Assigned" ORDER="27" Comments="MedDRA version 13.1" />
        <VARIABLE NAME="AEHLGT" LABEL="High Level Group Term" TYPE="Char" LENGTH="200" ROLE="Variable Qualifier" CORE="Exp" CONTROLLED="" DESCRIPTION="" ORIGIN="Assigned" ORDER="28" Comments="MedDRA version 13.1" />
        <VARIABLE NAME="AEHLGTCD" LABEL="High Level Group Term Code" TYPE="Num" LENGTH="8" ROLE="Variable Qualifier" CORE="Exp" CONTROLLED="" DESCRIPTION="" ORIGIN="Assigned" ORDER="29" Comments="MedDRA version 13.1" />
        <VARIABLE NAME="AECAT" LABEL="Category for Adverse Event" TYPE="Char" LENGTH="200" ROLE="Grouping Qualifier" CORE="Perm" CONTROLLED="" DESCRIPTION="" ORIGIN="Assigned" ORDER="30" Comments="" />
        <VARIABLE NAME="AESCAT" LABEL="Subcategory for Adverse Event" TYPE="Char" LENGTH="200" ROLE="Grouping Qualifier" CORE="Perm" CONTROLLED="" DESCRIPTION="" ORIGIN="Assigned" ORDER="31" Comments="" />
        <VARIABLE NAME="AEPRESP" LABEL="Pre-Specified Adverse Event" TYPE="Char" LENGTH="1" ROLE="Record Qualifier" CORE="Perm" CONTROLLED="(NY)" DESCRIPTION="" ORIGIN="Assigned" ORDER="32" Comments="" />
        <VARIABLE NAME="AEBODSYS" LABEL="Body System or Organ Class" TYPE="Char" LENGTH="200" ROLE="Record Qualifier" CORE="Exp" CONTROLLED="" DESCRIPTION="" ORIGIN="Assigned" ORDER="36" Comments="MedDRA version 13.1" />
        <VARIABLE NAME="AEBDSYCD" LABEL="Body System or Organ Class Code" TYPE="Num" LENGTH="8" ROLE="Variable Qualifier" CORE="Exp" CONTROLLED="" DESCRIPTION="" ORIGIN="Assigned" ORDER="37" Comments="MedDRA version 13.1" />
        <VARIABLE NAME="AESOC" LABEL="Primary System Organ Class" TYPE="Char" LENGTH="200" ROLE="Variable Qualifier" CORE="Exp" CONTROLLED="" DESCRIPTION="" ORIGIN="Assigned" ORDER="38" Comments="MedDRA version 13.1" />
        <VARIABLE NAME="AESOCCD" LABEL="Primary System Organ Class Code" TYPE="Num" LENGTH="8" ROLE="Variable Qualifier" CORE="Exp" CONTROLLED="" DESCRIPTION="" ORIGIN="Assigned" ORDER="39" Comments="MedDRA version 13.1" />
        <VARIABLE NAME="AELOC" LABEL="Location of Event" TYPE="Char" LENGTH="200" ROLE="Record Qualifier" CORE="Perm" CONTROLLED="(LOC)" DESCRIPTION="" ORIGIN="Assigned" ORDER="40" Comments="" />
        <VARIABLE NAME="AESEV" LABEL="Severity/Intensity" TYPE="Char" LENGTH="8" ROLE="Record Qualifier" CORE="Perm" CONTROLLED="(AESEV)" DESCRIPTION="" ORIGIN="Assigned" ORDER="41" Comments="" />
        <VARIABLE NAME="AESER" LABEL="Serious Event" TYPE="Char" LENGTH="1" ROLE="Record Qualifier" CORE="Exp" CONTROLLED="(NY)" DESCRIPTION="" ORIGIN="Assigned" ORDER="42" Comments="" />
        <VARIABLE NAME="AEACN" LABEL="Action Taken with Study Treatment" TYPE="Char" LENGTH="200" ROLE="Record Qualifier" CORE="Exp" CONTROLLED="(ACN)" DESCRIPTION="" ORIGIN="Assigned" ORDER="43" Comments="" />
        <VARIABLE NAME="AEACNOTH" LABEL="Other Action Taken" TYPE="Char" LENGTH="200" ROLE="Record Qualifier" CORE="Perm" CONTROLLED="" DESCRIPTION="" ORIGIN="Assigned" ORDER="44" Comments="" />
        <VARIABLE NAME="AEREL" LABEL="Causality" TYPE="Char" LENGTH="50" ROLE="Record Qualifier" CORE="Exp" CONTROLLED="" DESCRIPTION="" ORIGIN="Assigned" ORDER="45" Comments="" />
        <VARIABLE NAME="AERELNST" LABEL="Relationship to Non-Study Treatment" TYPE="Char" LENGTH="200" ROLE="Record Qualifier" CORE="Perm" CONTROLLED="" DESCRIPTION="" ORIGIN="Assigned" ORDER="46" Comments="" />
        <VARIABLE NAME="AEPATT" LABEL="Pattern of Adverse Event" TYPE="Char" LENGTH="50" ROLE="Record Qualifier" CORE="Perm" CONTROLLED="" DESCRIPTION="" ORIGIN="Assigned" ORDER="47" Comments="" />
        <VARIABLE NAME="AEOUT" LABEL="Outcome of Adverse Event" TYPE="Char" LENGTH="200" ROLE="Record Qualifier" CORE="Perm" CONTROLLED="(OUT)" DESCRIPTION="" ORIGIN="Assigned" ORDER="48" Comments="" />
        <VARIABLE NAME="AESCAN" LABEL="Involves Cancer" TYPE="Char" LENGTH="1" ROLE="Record Qualifier" CORE="Perm" CONTROLLED="(NY)" DESCRIPTION="" ORIGIN="Assigned" ORDER="49" Comments="" />
        <VARIABLE NAME="AESCONG" LABEL="Congenital Anomaly or Birth Defect" TYPE="Char" LENGTH="1" ROLE="Record Qualifier" CORE="Perm" CONTROLLED="(NY)" DESCRIPTION="" ORIGIN="Assigned" ORDER="50" Comments="" />
        <VARIABLE NAME="AESDISAB" LABEL="Persist or Signif Disability/Incapacity" TYPE="Char" LENGTH="1" ROLE="Record Qualifier" CORE="Perm" CONTROLLED="(NY)" DESCRIPTION="" ORIGIN="Assigned" ORDER="51" Comments="" />
        <VARIABLE NAME="AESDTH" LABEL="Results in Death" TYPE="Char" LENGTH="1" ROLE="Record Qualifier" CORE="Perm" CONTROLLED="(NY)" DESCRIPTION="" ORIGIN="Assigned" ORDER="52" Comments="" />
        <VARIABLE NAME="AESHOSP" LABEL="Requires or Prolongs Hospitalization" TYPE="Char" LENGTH="1" ROLE="Record Qualifier" CORE="Perm" CONTROLLED="(NY)" DESCRIPTION="" ORIGIN="Assigned" ORDER="53" Comments="" />
        <VARIABLE NAME="AESLIFE" LABEL="Is Life Threatening" TYPE="Char" LENGTH="1" ROLE="Record Qualifier" CORE="Perm" CONTROLLED="(NY)" DESCRIPTION="" ORIGIN="Assigned" ORDER="54" Comments="" />
        <VARIABLE NAME="AESOD" LABEL="Occurred with Overdose" TYPE="Char" LENGTH="1" ROLE="Record Qualifier" CORE="Perm" CONTROLLED="(NY)" DESCRIPTION="" ORIGIN="Assigned" ORDER="55" Comments="" />
        <VARIABLE NAME="AESMIE" LABEL="Other Medically Important Serious Event" TYPE="Char" LENGTH="1" ROLE="Record Qualifier" CORE="Perm" CONTROLLED="(NY)" DESCRIPTION="" ORIGIN="Assigned" ORDER="56" Comments="" />
        <VARIABLE NAME="AECONTRT" LABEL="Concomitant or Additional Trtmnt Given" TYPE="Char" LENGTH="1" ROLE="Record Qualifier" CORE="Perm" CONTROLLED="(NY)" DESCRIPTION="" ORIGIN="Assigned" ORDER="57" Comments="" />
        <VARIABLE NAME="AETOXGR" LABEL="Standard Toxicity Grade" TYPE="Char" LENGTH="1" ROLE="Record Qualifier" CORE="Perm" CONTROLLED="" DESCRIPTION="" ORIGIN="Assigned" ORDER="59" Comments="" />
        <VARIABLE NAME="AESTDTC" LABEL="Start Date/Time of Adverse Event" TYPE="Char" LENGTH="20" ROLE="Timing" CORE="Exp" CONTROLLED="ISO 8601" DESCRIPTION="" ORIGIN="Assigned" ORDER="106" Comments="" />
        <VARIABLE NAME="AEENDTC" LABEL="End Date/Time of Adverse Event" TYPE="Char" LENGTH="20" ROLE="Timing" CORE="Exp" CONTROLLED="ISO 8601" DESCRIPTION="" ORIGIN="Assigned" ORDER="107" Comments="" />
        <VARIABLE NAME="AESTDY" LABEL="Study Day of Start of Adverse Event" TYPE="Num" LENGTH="8" ROLE="Timing" CORE="Perm" CONTROLLED="" DESCRIPTION="" ORIGIN="Derived" ORDER="109" Comments="Relative study day between &lt;AESTDTC&gt; and DM.RFSTDTC. Add 1 if the difference is greater than or equal to 0." />
        <VARIABLE NAME="AEENDY" LABEL="Study Day of End of Adverse Event" TYPE="Num" LENGTH="8" ROLE="Timing" CORE="Perm" CONTROLLED="" DESCRIPTION="" ORIGIN="Derived" ORDER="110" Comments="Relative study day between &lt;AEENDTC&gt; and DM.RFSTDTC. Add 1 if the difference is greater than or equal to 0." />
        <VARIABLE NAME="AEDUR" LABEL="Duration of Adverse Event" TYPE="Char" LENGTH="50" ROLE="Timing" CORE="Perm" CONTROLLED="ISO 8601" DESCRIPTION="" ORIGIN="Assigned" ORDER="111" Comments="" />
        <VARIABLE NAME="AEENRF" LABEL="End Relative to Reference Period" TYPE="Char" LENGTH="12" ROLE="Timing" CORE="Perm" CONTROLLED="(STENRF)" DESCRIPTION="" ORIGIN="Assigned" ORDER="118" Comments="" />
        <VARIABLE NAME="AEENRTPT" LABEL="End Relative to Reference Time Point" TYPE="Char" LENGTH="12" ROLE="Timing" CORE="Perm" CONTROLLED="(STENRF)" DESCRIPTION="" ORIGIN="Assigned" ORDER="122" Comments="" />
        <VARIABLE NAME="AEENTPT" LABEL="End Reference Time Point" TYPE="Char" LENGTH="200" ROLE="Timing" CORE="Perm" CONTROLLED="" DESCRIPTION="" ORIGIN="Assigned" ORDER="123" Comments="" />
      </VARIABLES>
      <KEYVARIABLES>
        <VARIABLE NAME="STUDYID" />
        <VARIABLE NAME="USUBJID" />
        <VARIABLE NAME="AESTDTC" />
        <VARIABLE NAME="AECAT" />
        <VARIABLE NAME="AETERM" />
      </KEYVARIABLES>
    </DOMAIN>
    <DOMAIN CODE="DS" NAME="Disposition" STRUCTURE="One record per disposition status or protocol milestone per subject" CLASS="Events" DESCRIPTION="">
      <VARIABLES>
        <VARIABLE NAME="STUDYID" LABEL="Study Identifier" TYPE="Char" LENGTH="20" ROLE="Identifier" CORE="Req" CONTROLLED="" DESCRIPTION="" ORIGIN="Assigned" ORDER="1" Comments="" />
        <VARIABLE NAME="DOMAIN" LABEL="Domain Abbreviation" TYPE="Char" LENGTH="2" ROLE="Identifier" CORE="Req" CONTROLLED="" DESCRIPTION="" ORIGIN="Assigned" ORDER="2" Comments="" />
        <VARIABLE NAME="USUBJID" LABEL="Unique Subject Identifier" TYPE="Char" LENGTH="25" ROLE="Identifier" CORE="Req" CONTROLLED="" DESCRIPTION="" ORIGIN="Derived" ORDER="4" Comments="Concatenate STUDYID, SITEID and SUBJID, separated by &quot;-&quot;." />
        <VARIABLE NAME="DSSEQ" LABEL="Sequence Number" TYPE="Num" LENGTH="8" ROLE="Identifier" CORE="Req" CONTROLLED="" DESCRIPTION="" ORIGIN="Derived" ORDER="8" Comments="Sort by the key variables specified in the domain list. Assign DSSEQ=1 to the first record and increment DSSEQ by 1 for each additional record so that DSSEQ is unique for each record within a USUBJID." />
        <VARIABLE NAME="DSGRPID" LABEL="Group ID" TYPE="Char" LENGTH="20" ROLE="Identifier" CORE="Perm" CONTROLLED="" DESCRIPTION="" ORIGIN="Assigned" ORDER="9" Comments="" />
        <VARIABLE NAME="DSREFID" LABEL="Reference ID" TYPE="Char" LENGTH="20" ROLE="Identifier" CORE="Perm" CONTROLLED="" DESCRIPTION="" ORIGIN="Assigned" ORDER="10" Comments="" />
        <VARIABLE NAME="DSSPID" LABEL="Sponsor-Defined Identifier" TYPE="Char" LENGTH="20" ROLE="Identifier" CORE="Perm" CONTROLLED="" DESCRIPTION="" ORIGIN="Assigned" ORDER="11" Comments="" />
        <VARIABLE NAME="DSTERM" LABEL="Reported Term for the Disposition Event" TYPE="Char" LENGTH="200" ROLE="Topic" CORE="Req" CONTROLLED="" DESCRIPTION="" ORIGIN="Assigned" ORDER="20" Comments="" />
        <VARIABLE NAME="DSDECOD" LABEL="Standardized Disposition Term" TYPE="Char" LENGTH="200" ROLE="Synonym Qualifier" CORE="Req" CONTROLLED="(NCOMPLT)" DESCRIPTION="" ORIGIN="Assigned" ORDER="24" Comments="" />
        <VARIABLE NAME="DSCAT" LABEL="Category for Disposition Event" TYPE="Char" LENGTH="200" ROLE="Grouping Qualifier" CORE="Exp" CONTROLLED="(DSCAT)" DESCRIPTION="" ORIGIN="Assigned" ORDER="30" Comments="" />
        <VARIABLE NAME="DSSCAT" LABEL="Subcategory for Disposition Event" TYPE="Char" LENGTH="200" ROLE="Grouping Qualifier" CORE="Perm" CONTROLLED="" DESCRIPTION="" ORIGIN="Assigned" ORDER="31" Comments="" />
        <VARIABLE NAME="EPOCH" LABEL="Epoch" TYPE="Char" LENGTH="50" ROLE="Timing" CORE="Perm" CONTROLLED="" DESCRIPTION="" ORIGIN="Assigned" ORDER="104" Comments="" />
        <VARIABLE NAME="DSDTC" LABEL="Date/Time of Collection" TYPE="Char" LENGTH="20" ROLE="Timing" CORE="Perm" CONTROLLED="ISO 8601" DESCRIPTION="" ORIGIN="Assigned" ORDER="105" Comments="" />
        <VARIABLE NAME="DSSTDTC" LABEL="Start Date/Time of Disposition Event" TYPE="Char" LENGTH="20" ROLE="Timing" CORE="Exp" CONTROLLED="ISO 8601" DESCRIPTION="" ORIGIN="Assigned" ORDER="106" Comments="" />
        <VARIABLE NAME="DSDY" LABEL="Study Day of Visit/Collection/Exam" TYPE="Num" LENGTH="8" ROLE="Timing" CORE="Perm" CONTROLLED="" DESCRIPTION="" ORIGIN="Derived" ORDER="108" Comments="Relative study day between &lt;DSDTC&gt; and DM.RFSTDTC. Add 1 if the difference is greater than or equal to 0." />
        <VARIABLE NAME="DSSTDY" LABEL="Study Day of Start of Disposition Event" TYPE="Num" LENGTH="8" ROLE="Timing" CORE="Perm" CONTROLLED="" DESCRIPTION="" ORIGIN="Derived" ORDER="109" Comments="Relative study day between &lt;DSSTDTC&gt; and DM.RFSTDTC. Add 1 if the difference is greater than or equal to 0." />
      </VARIABLES>
      <KEYVARIABLES>
        <VARIABLE NAME="STUDYID" />
        <VARIABLE NAME="USUBJID" />
        <VARIABLE NAME="DSSTDTC" />
        <VARIABLE NAME="DSCAT" />
        <VARIABLE NAME="DSDECOD" />
        <VARIABLE NAME="DSTERM" />
      </KEYVARIABLES>
    </DOMAIN>
    <DOMAIN CODE="MH" NAME="Medical History" STRUCTURE="One record per medical history event per subject" CLASS="Events" DESCRIPTION="">
      <VARIABLES>
        <VARIABLE NAME="STUDYID" LABEL="Study Identifier" TYPE="Char" LENGTH="20" ROLE="Identifier" CORE="Req" CONTROLLED="" DESCRIPTION="" ORIGIN="Assigned" ORDER="1" Comments="" />
        <VARIABLE NAME="DOMAIN" LABEL="Domain Abbreviation" TYPE="Char" LENGTH="2" ROLE="Identifier" CORE="Req" CONTROLLED="" DESCRIPTION="" ORIGIN="Assigned" ORDER="2" Comments="" />
        <VARIABLE NAME="USUBJID" LABEL="Unique Subject Identifier" TYPE="Char" LENGTH="25" ROLE="Identifier" CORE="Req" CONTROLLED="" DESCRIPTION="" ORIGIN="Derived" ORDER="4" Comments="Concatenate STUDYID, SITEID and SUBJID, separated by &quot;-&quot;." />
        <VARIABLE NAME="MHSEQ" LABEL="Sequence Number" TYPE="Num" LENGTH="8" ROLE="Identifier" CORE="Req" CONTROLLED="" DESCRIPTION="" ORIGIN="Derived" ORDER="8" Comments="Sort by the key variables specified in the domain list. Assign MHSEQ=1 to the first record and increment MHSEQ by 1 for each additional record so that MHSEQ is unique for each record within a USUBJID." />
        <VARIABLE NAME="MHGRPID" LABEL="Group ID" TYPE="Char" LENGTH="20" ROLE="Identifier" CORE="Perm" CONTROLLED="" DESCRIPTION="" ORIGIN="Assigned" ORDER="9" Comments="" />
        <VARIABLE NAME="MHREFID" LABEL="Reference ID" TYPE="Char" LENGTH="20" ROLE="Identifier" CORE="Perm" CONTROLLED="" DESCRIPTION="" ORIGIN="Assigned" ORDER="10" Comments="" />
        <VARIABLE NAME="MHSPID" LABEL="Sponsor-Defined Identifier" TYPE="Char" LENGTH="20" ROLE="Identifier" CORE="Perm" CONTROLLED="" DESCRIPTION="" ORIGIN="Assigned" ORDER="11" Comments="" />
        <VARIABLE NAME="MHTERM" LABEL="Reported Term for the Medical History" TYPE="Char" LENGTH="200" ROLE="Topic" CORE="Req" CONTROLLED="" DESCRIPTION="" ORIGIN="Assigned" ORDER="20" Comments="" />
        <VARIABLE NAME="MHMODIFY" LABEL="Modified Reported Term" TYPE="Char" LENGTH="200" ROLE="Synonym Qualifier" CORE="Perm" CONTROLLED="" DESCRIPTION="" ORIGIN="Assigned" ORDER="21" Comments="" />
        <VARIABLE NAME="MHLLT" LABEL="Lowest Level Term" TYPE="Char" LENGTH="200" ROLE="Variable Qualifier" CORE="Perm" CONTROLLED="" DESCRIPTION="" ORIGIN="Assigned" ORDER="22" Comments="MedDRA version 13.1" />
        <VARIABLE NAME="MHLLTCD" LABEL="Lowest Level Term Code" TYPE="Num" LENGTH="8" ROLE="Variable Qualifier" CORE="Perm" CONTROLLED="" DESCRIPTION="" ORIGIN="Assigned" ORDER="23" Comments="MedDRA version 13.1" />
        <VARIABLE NAME="MHDECOD" LABEL="Dictionary-Derived Term" TYPE="Char" LENGTH="200" ROLE="Synonym Qualifier" CORE="Perm" CONTROLLED="" DESCRIPTION="" ORIGIN="Assigned" ORDER="24" Comments="MedDRA version 13.1" />
        <VARIABLE NAME="MHPTCD" LABEL="Preferred Term Code" TYPE="Num" LENGTH="8" ROLE="Variable Qualifier" CORE="Perm" CONTROLLED="" DESCRIPTION="" ORIGIN="Assigned" ORDER="25" Comments="MedDRA version 13.1" />
        <VARIABLE NAME="MHHLT" LABEL="High Level Term" TYPE="Char" LENGTH="200" ROLE="Variable Qualifier" CORE="Perm" CONTROLLED="" DESCRIPTION="" ORIGIN="Assigned" ORDER="26" Comments="MedDRA version 13.1" />
        <VARIABLE NAME="MHHLTCD" LABEL="High Level Term Code" TYPE="Num" LENGTH="8" ROLE="Variable Qualifier" CORE="Perm" CONTROLLED="" DESCRIPTION="" ORIGIN="Assigned" ORDER="27" Comments="MedDRA version 13.1" />
        <VARIABLE NAME="MHHLGT" LABEL="High Level Group Term" TYPE="Char" LENGTH="200" ROLE="Variable Qualifier" CORE="Perm" CONTROLLED="" DESCRIPTION="" ORIGIN="Assigned" ORDER="28" Comments="MedDRA version 13.1" />
        <VARIABLE NAME="MHHLGTCD" LABEL="High Level Group Term Code" TYPE="Num" LENGTH="8" ROLE="Variable Qualifier" CORE="Perm" CONTROLLED="" DESCRIPTION="" ORIGIN="Assigned" ORDER="29" Comments="MedDRA version 13.1" />
        <VARIABLE NAME="MHCAT" LABEL="Category for Medical History" TYPE="Char" LENGTH="200" ROLE="Grouping Qualifier" CORE="Perm" CONTROLLED="" DESCRIPTION="" ORIGIN="Assigned" ORDER="30" Comments="" />
        <VARIABLE NAME="MHSCAT" LABEL="Subcategory for Medical History" TYPE="Char" LENGTH="200" ROLE="Grouping Qualifier" CORE="Perm" CONTROLLED="" DESCRIPTION="" ORIGIN="Assigned" ORDER="31" Comments="" />
        <VARIABLE NAME="MHPRESP" LABEL="Medical History Event Pre-Specified" TYPE="Char" LENGTH="1" ROLE="Record Qualifier" CORE="Perm" CONTROLLED="(NY)" DESCRIPTION="" ORIGIN="Assigned" ORDER="32" Comments="" />
        <VARIABLE NAME="MHOCCUR" LABEL="Medical History Occurrence" TYPE="Char" LENGTH="1" ROLE="Record Qualifier" CORE="Perm" CONTROLLED="(NY)" DESCRIPTION="" ORIGIN="Assigned" ORDER="33" Comments="" />
        <VARIABLE NAME="MHSTAT" LABEL="Completion Status" TYPE="Char" LENGTH="8" ROLE="Record Qualifier" CORE="Perm" CONTROLLED="(ND)" DESCRIPTION="" ORIGIN="Assigned" ORDER="34" Comments="" />
        <VARIABLE NAME="MHREASND" LABEL="Reason Medical History Not Collected" TYPE="Char" LENGTH="200" ROLE="Record Qualifier" CORE="Perm" CONTROLLED="" DESCRIPTION="" ORIGIN="Assigned" ORDER="35" Comments="" />
        <VARIABLE NAME="MHBODSYS" LABEL="Body System or Organ Class" TYPE="Char" LENGTH="200" ROLE="Record Qualifier" CORE="Perm" CONTROLLED="" DESCRIPTION="" ORIGIN="Assigned" ORDER="36" Comments="MedDRA version 13.1" />
        <VARIABLE NAME="MHBDSYCD" LABEL="Body System or Organ Class Code" TYPE="Num" LENGTH="8" ROLE="Variable Qualifier" CORE="Perm" CONTROLLED="" DESCRIPTION="" ORIGIN="Assigned" ORDER="37" Comments="MedDRA version 13.1" />
        <VARIABLE NAME="MHSOC" LABEL="Primary System Organ Class" TYPE="Char" LENGTH="200" ROLE="Variable Qualifier" CORE="Perm" CONTROLLED="" DESCRIPTION="" ORIGIN="Assigned" ORDER="38" Comments="MedDRA version 13.1" />
        <VARIABLE NAME="MHSOCCD" LABEL="Primary System Organ Class Code" TYPE="Num" LENGTH="8" ROLE="Variable Qualifier" CORE="Perm" CONTROLLED="" DESCRIPTION="" ORIGIN="Assigned" ORDER="39" Comments="MedDRA version 13.1" />
        <VARIABLE NAME="MHDTC" LABEL="Date/Time of History Collection" TYPE="Char" LENGTH="20" ROLE="Timing" CORE="Perm" CONTROLLED="ISO 8601" DESCRIPTION="" ORIGIN="Assigned" ORDER="105" Comments="" />
        <VARIABLE NAME="MHSTDTC" LABEL="Start Date/Time of Medical History Event" TYPE="Char" LENGTH="20" ROLE="Timing" CORE="Perm" CONTROLLED="ISO 8601" DESCRIPTION="" ORIGIN="Assigned" ORDER="106" Comments="" />
        <VARIABLE NAME="MHENDTC" LABEL="End Date/Time of Medical History Event" TYPE="Char" LENGTH="20" ROLE="Timing" CORE="Perm" CONTROLLED="ISO 8601" DESCRIPTION="" ORIGIN="Assigned" ORDER="107" Comments="" />
        <VARIABLE NAME="MHDY" LABEL="Study Day of History Collection" TYPE="Num" LENGTH="8" ROLE="Timing" CORE="Perm" CONTROLLED="" DESCRIPTION="" ORIGIN="Derived" ORDER="108" Comments="Relative study day between &lt;MHDTC&gt; and DM.RFSTDTC. Add 1 if the difference is greater than or equal to 0." />
        <VARIABLE NAME="MHSTDY" LABEL="Study Day of Start of Medical History" TYPE="Num" LENGTH="8" ROLE="Timing" CORE="Perm" CONTROLLED="" DESCRIPTION="" ORIGIN="Derived" ORDER="109" Comments="Relative study day between &lt;MHSTDTC&gt; and DM.RFSTDTC. Add 1 if the difference is greater than or equal to 0." />
        <VARIABLE NAME="MHENDY" LABEL="Study Day of End of Medical History" TYPE="Num" LENGTH="8" ROLE="Timing" CORE="Perm" CONTROLLED="" DESCRIPTION="" ORIGIN="Derived" ORDER="110" Comments="Relative study day between &lt;MHENDTC&gt; and DM.RFSTDTC. Add 1 if the difference is greater than or equal to 0." />
        <VARIABLE NAME="MHENRF" LABEL="End Relative to Reference Period" TYPE="Char" LENGTH="12" ROLE="Timing" CORE="Perm" CONTROLLED="(STENRF)" DESCRIPTION="" ORIGIN="Assigned" ORDER="118" Comments="" />
        <VARIABLE NAME="MHENRTPT" LABEL="End Relative to Reference Time Point" TYPE="Char" LENGTH="12" ROLE="Timing" CORE="Perm" CONTROLLED="(STENRF)" DESCRIPTION="" ORIGIN="Assigned" ORDER="122" Comments="" />
        <VARIABLE NAME="MHENTPT" LABEL="End Reference Time Point" TYPE="Char" LENGTH="200" ROLE="Timing" CORE="Perm" CONTROLLED="" DESCRIPTION="" ORIGIN="Assigned" ORDER="123" Comments="" />
      </VARIABLES>
      <KEYVARIABLES>
        <VARIABLE NAME="STUDYID" />
        <VARIABLE NAME="USUBJID" />
        <VARIABLE NAME="MHDTC" />
        <VARIABLE NAME="MHCAT" />
        <VARIABLE NAME="MHTERM" />
      </KEYVARIABLES>
    </DOMAIN>
    <DOMAIN CODE="DV" NAME="Protocol Deviations" STRUCTURE="One record per protocol deviation per subject" CLASS="Events" DESCRIPTION="">
      <VARIABLES>
        <VARIABLE NAME="STUDYID" LABEL="Study Identifier" TYPE="Char" LENGTH="20" ROLE="Identifier" CORE="Req" CONTROLLED="" DESCRIPTION="" ORIGIN="Assigned" ORDER="1" Comments="" />
        <VARIABLE NAME="DOMAIN" LABEL="Domain Abbreviation" TYPE="Char" LENGTH="2" ROLE="Identifier" CORE="Req" CONTROLLED="" DESCRIPTION="" ORIGIN="Assigned" ORDER="2" Comments="" />
        <VARIABLE NAME="USUBJID" LABEL="Unique Subject Identifier" TYPE="Char" LENGTH="25" ROLE="Identifier" CORE="Req" CONTROLLED="" DESCRIPTION="" ORIGIN="Derived" ORDER="4" Comments="Concatenate STUDYID, SITEID and SUBJID, separated by &quot;-&quot;." />
        <VARIABLE NAME="DVSEQ" LABEL="Sequence Number" TYPE="Num" LENGTH="8" ROLE="Identifier" CORE="Req" CONTROLLED="" DESCRIPTION="" ORIGIN="Derived" ORDER="8" Comments="Sort by the key variables specified in the domain list. Assign DVSEQ=1 to the first record and increment DVSEQ by 1 for each additional record so that DVSEQ is unique for each record within a USUBJID." />
        <VARIABLE NAME="DVREFID" LABEL="Reference ID" TYPE="Char" LENGTH="20" ROLE="Identifier" CORE="Perm" CONTROLLED="" DESCRIPTION="" ORIGIN="Assigned" ORDER="10" Comments="" />
        <VARIABLE NAME="DVSPID" LABEL="Sponsor-Defined Identifier" TYPE="Char" LENGTH="20" ROLE="Identifier" CORE="Perm" CONTROLLED="" DESCRIPTION="" ORIGIN="Assigned" ORDER="11" Comments="" />
        <VARIABLE NAME="DVTERM" LABEL="Protocol Deviation Term" TYPE="Char" LENGTH="200" ROLE="Topic" CORE="Req" CONTROLLED="" DESCRIPTION="" ORIGIN="Assigned" ORDER="20" Comments="" />
        <VARIABLE NAME="DVDECOD" LABEL="Protocol Deviation Coded Term" TYPE="Char" LENGTH="200" ROLE="Synonym Qualifier" CORE="Perm" CONTROLLED="" DESCRIPTION="" ORIGIN="Assigned" ORDER="24" Comments="" />
        <VARIABLE NAME="DVCAT" LABEL="Category for Protocol Deviation" TYPE="Char" LENGTH="200" ROLE="Grouping Qualifier" CORE="Perm" CONTROLLED="" DESCRIPTION="" ORIGIN="Assigned" ORDER="30" Comments="" />
        <VARIABLE NAME="DVSCAT" LABEL="Subcategory for Protocol Deviation" TYPE="Char" LENGTH="200" ROLE="Grouping Qualifier" CORE="Perm" CONTROLLED="" DESCRIPTION="" ORIGIN="Assigned" ORDER="31" Comments="" />
        <VARIABLE NAME="EPOCH" LABEL="Epoch" TYPE="Char" LENGTH="50" ROLE="Timing" CORE="Perm" CONTROLLED="" DESCRIPTION="" ORIGIN="Derived" ORDER="104" Comments="'SCREENING' if DVSTDTC is before RFSTDTC; 'TREATMENT' if DVSTDTC is between RFSTDTC and RFENDTC; 'FOLLOW-UP' if DVSTDTC is after RFENDTC." />
        <VARIABLE NAME="DVSTDTC" LABEL="Start Date/Time of Deviation" TYPE="Char" LENGTH="20" ROLE="Timing" CORE="Perm" CONTROLLED="ISO 8601" DESCRIPTION="" ORIGIN="Assigned" ORDER="106" Comments="" />
        <VARIABLE NAME="DVENDTC" LABEL="End Date/Time of Deviation" TYPE="Char" LENGTH="20" ROLE="Timing" CORE="Perm" CONTROLLED="ISO 8601" DESCRIPTION="" ORIGIN="Assigned" ORDER="107" Comments="" />
        <VARIABLE NAME="DVSTDY" LABEL="Study Day of Start of Observation" TYPE="Num" LENGTH="8" ROLE="Timing" CORE="Perm" CONTROLLED="" DESCRIPTION="" ORIGIN="Derived" ORDER="109" Comments="Relative study day between &lt;DVSTDTC&gt; and DM.RFSTDTC. Add 1 if the difference is greater than or equal to 0." />
        <VARIABLE NAME="DVENDY" LABEL="Study Day of End of Observation" TYPE="Num" LENGTH="8" ROLE="Timing" CORE="Perm" CONTROLLED="" DESCRIPTION="" ORIGIN="Derived" ORDER="110" Comments="Relative study day between &lt;DVENDTC&gt; and DM.RFSTDTC. Add 1 if the difference is greater than or equal to 0." />
      </VARIABLES>
      <KEYVARIABLES>
        <VARIABLE NAME="STUDYID" />
        <VARIABLE NAME="USUBJID" />
        <VARIABLE NAME="DVSTDTC" />
        <VARIABLE NAME="DVCAT" />
        <VARIABLE NAME="DVTERM" />
      </KEYVARIABLES>
    </DOMAIN>
    <DOMAIN CODE="CE" NAME="Clinical Events" STRUCTURE="One record per event per subject" CLASS="Events" DESCRIPTION="">
      <VARIABLES>
        <VARIABLE NAME="STUDYID" LABEL="Study Identifier" TYPE="Char" LENGTH="20" ROLE="Identifier" CORE="Req" CONTROLLED="" DESCRIPTION="" ORIGIN="Assigned" ORDER="1" Comments="" />
        <VARIABLE NAME="DOMAIN" LABEL="Domain Abbreviation" TYPE="Char" LENGTH="2" ROLE="Identifier" CORE="Req" CONTROLLED="" DESCRIPTION="" ORIGIN="Assigned" ORDER="2" Comments="" />
        <VARIABLE NAME="USUBJID" LABEL="Unique Subject Identifier" TYPE="Char" LENGTH="25" ROLE="Identifier" CORE="Req" CONTROLLED="" DESCRIPTION="" ORIGIN="Derived" ORDER="4" Comments="Concatenate STUDYID, SITEID and SUBJID, separated by &quot;-&quot;." />
        <VARIABLE NAME="CESEQ" LABEL="Sequence Number" TYPE="Num" LENGTH="8" ROLE="Identifier" CORE="Req" CONTROLLED="" DESCRIPTION="" ORIGIN="Derived" ORDER="8" Comments="Sort by the key variables specified in the domain list. Assign CESEQ=1 to the first record and increment CESEQ by 1 for each additional record so that CESEQ is unique for each record within a USUBJID." />
        <VARIABLE NAME="CEGRPID" LABEL="Group ID" TYPE="Char" LENGTH="20" ROLE="Identifier" CORE="Perm" CONTROLLED="" DESCRIPTION="" ORIGIN="Assigned" ORDER="9" Comments="" />
        <VARIABLE NAME="CEREFID" LABEL="Reference ID" TYPE="Char" LENGTH="20" ROLE="Identifier" CORE="Perm" CONTROLLED="" DESCRIPTION="" ORIGIN="Assigned" ORDER="10" Comments="" />
        <VARIABLE NAME="CESPID" LABEL="Sponsor-Defined Identifier" TYPE="Char" LENGTH="20" ROLE="Identifier" CORE="Perm" CONTROLLED="" DESCRIPTION="" ORIGIN="Assigned" ORDER="11" Comments="" />
        <VARIABLE NAME="CETERM" LABEL="Reported Term for the Clinical Event" TYPE="Char" LENGTH="200" ROLE="Topic" CORE="Req" CONTROLLED="" DESCRIPTION="" ORIGIN="Assigned" ORDER="20" Comments="" />
        <VARIABLE NAME="CEDECOD" LABEL="Dictionary-Derived Term" TYPE="Char" LENGTH="200" ROLE="Synonym Qualifier" CORE="Perm" CONTROLLED="" DESCRIPTION="" ORIGIN="Assigned" ORDER="24" Comments="" />
        <VARIABLE NAME="CECAT" LABEL="Category for Clinical Event" TYPE="Char" LENGTH="200" ROLE="Grouping Qualifier" CORE="Perm" CONTROLLED="" DESCRIPTION="" ORIGIN="Assigned" ORDER="30" Comments="" />
        <VARIABLE NAME="CESCAT" LABEL="Subcategory for Clinical Event" TYPE="Char" LENGTH="200" ROLE="Grouping Qualifier" CORE="Perm" CONTROLLED="" DESCRIPTION="" ORIGIN="Assigned" ORDER="31" Comments="" />
        <VARIABLE NAME="CEPRESP" LABEL="Clinical Event Pre-Specified" TYPE="Char" LENGTH="1" ROLE="Record Qualifier" CORE="Perm" CONTROLLED="(NY)" DESCRIPTION="" ORIGIN="Assigned" ORDER="32" Comments="" />
        <VARIABLE NAME="CEOCCUR" LABEL="Clinical Event Occurrence" TYPE="Char" LENGTH="1" ROLE="Record Qualifier" CORE="Perm" CONTROLLED="(NY)" DESCRIPTION="" ORIGIN="Assigned" ORDER="33" Comments="" />
        <VARIABLE NAME="CESTAT" LABEL="Completion Status" TYPE="Char" LENGTH="8" ROLE="Record Qualifier" CORE="Perm" CONTROLLED="(ND)" DESCRIPTION="" ORIGIN="Assigned" ORDER="34" Comments="" />
        <VARIABLE NAME="CEREASND" LABEL="Reason Clinical Event Not Collected" TYPE="Char" LENGTH="200" ROLE="Record Qualifier" CORE="Perm" CONTROLLED="" DESCRIPTION="" ORIGIN="Assigned" ORDER="35" Comments="" />
        <VARIABLE NAME="CEBODSYS" LABEL="Body System or Organ Class" TYPE="Char" LENGTH="200" ROLE="Record Qualifier" CORE="Perm" CONTROLLED="" DESCRIPTION="" ORIGIN="Assigned" ORDER="36" Comments="" />
        <VARIABLE NAME="CESEV" LABEL="Severity/Intensity" TYPE="Char" LENGTH="8" ROLE="Record Qualifier" CORE="Perm" CONTROLLED="" DESCRIPTION="" ORIGIN="Assigned" ORDER="41" Comments="" />
        <VARIABLE NAME="CEDTC" LABEL="Date/Time of Event Collection" TYPE="Char" LENGTH="20" ROLE="Timing" CORE="Perm" CONTROLLED="ISO 8601" DESCRIPTION="" ORIGIN="Assigned" ORDER="105" Comments="" />
        <VARIABLE NAME="CESTDTC" LABEL="Start Date/Time of Clinical Event" TYPE="Char" LENGTH="20" ROLE="Timing" CORE="Perm" CONTROLLED="ISO 8601" DESCRIPTION="" ORIGIN="Assigned" ORDER="106" Comments="" />
        <VARIABLE NAME="CEENDTC" LABEL="End Date/Time of Clinical Event" TYPE="Char" LENGTH="20" ROLE="Timing" CORE="Perm" CONTROLLED="ISO 8601" DESCRIPTION="" ORIGIN="Assigned" ORDER="107" Comments="" />
        <VARIABLE NAME="CEDY" LABEL="Study Day of Event Collection" TYPE="Num" LENGTH="8" ROLE="Timing" CORE="Perm" CONTROLLED="" DESCRIPTION="" ORIGIN="Derived" ORDER="108" Comments="Relative study day between &lt;CDTC&gt; and DM.RFSTDTC. Add 1 if the difference is greater than or equal to 0." />
        <VARIABLE NAME="CESTDY" LABEL="Study Day of Start of Observation" TYPE="Num" LENGTH="8" ROLE="Timing" CORE="Perm" CONTROLLED="" DESCRIPTION="" ORIGIN="Derived" ORDER="109" Comments="Relative study day between &lt;CESTDTC&gt; and DM.RFSTDTC. Add 1 if the difference is greater than or equal to 0." />
        <VARIABLE NAME="CEENDY" LABEL="Study Day of End of Observation" TYPE="Num" LENGTH="8" ROLE="Timing" CORE="Perm" CONTROLLED="" DESCRIPTION="" ORIGIN="Derived" ORDER="110" Comments="Relative study day between &lt;CEENDTC&gt; and DM.RFSTDTC. Add 1 if the difference is greater than or equal to 0." />
        <VARIABLE NAME="CESTRF" LABEL="Start Relative to Reference Period" TYPE="Char" LENGTH="12" ROLE="Timing" CORE="Perm" CONTROLLED="(STENRF)" DESCRIPTION="" ORIGIN="Assigned" ORDER="117" Comments="" />
        <VARIABLE NAME="CEENRF" LABEL="End Relative to Reference Period" TYPE="Char" LENGTH="12" ROLE="Timing" CORE="Perm" CONTROLLED="(STENRF)" DESCRIPTION="" ORIGIN="Assigned" ORDER="118" Comments="" />
        <VARIABLE NAME="CESTRTPT" LABEL="Start Relative to Reference Time Point" TYPE="Char" LENGTH="12" ROLE="Timing" CORE="Perm" CONTROLLED="(STENRF)" DESCRIPTION="" ORIGIN="Assigned" ORDER="120" Comments="" />
        <VARIABLE NAME="CESTTPT" LABEL="Start Reference Time Point" TYPE="Char" LENGTH="200" ROLE="Timing" CORE="Perm" CONTROLLED="" DESCRIPTION="" ORIGIN="Assigned" ORDER="121" Comments="" />
        <VARIABLE NAME="CEENRTPT" LABEL="End Relative to Reference Time Point" TYPE="Char" LENGTH="12" ROLE="Timing" CORE="Perm" CONTROLLED="(STENRF)" DESCRIPTION="" ORIGIN="Assigned" ORDER="122" Comments="" />
        <VARIABLE NAME="CEENTPT" LABEL="End Reference Time Point" TYPE="Char" LENGTH="200" ROLE="Timing" CORE="Perm" CONTROLLED="" DESCRIPTION="" ORIGIN="Assigned" ORDER="123" Comments="" />
      </VARIABLES>
      <KEYVARIABLES>
        <VARIABLE NAME="STUDYID" />
        <VARIABLE NAME="USUBJID" />
        <VARIABLE NAME="CESTDTC" />
        <VARIABLE NAME="CECAT" />
        <VARIABLE NAME="CETERM" />
      </KEYVARIABLES>
    </DOMAIN>
    <DOMAIN CODE="HO" NAME="Hospitalization" STRUCTURE="One record per subject per hospitalization event" CLASS="Events" DESCRIPTION="">
      <VARIABLES>
        <VARIABLE NAME="STUDYID" LABEL="Study Identifier" TYPE="Char" LENGTH="20" ROLE="Identifier" CORE="Req" CONTROLLED="" DESCRIPTION="" ORIGIN="Assigned" ORDER="1" Comments="" />
        <VARIABLE NAME="DOMAIN" LABEL="Domain Abbreviation" TYPE="Char" LENGTH="2" ROLE="Identifier" CORE="Req" CONTROLLED="" DESCRIPTION="" ORIGIN="Assigned" ORDER="2" Comments="" />
        <VARIABLE NAME="USUBJID" LABEL="Unique Subject Identifier" TYPE="Char" LENGTH="25" ROLE="Identifier" CORE="Req" CONTROLLED="" DESCRIPTION="" ORIGIN="Derived" ORDER="4" Comments="Concatenate STUDYID, SITEID and SUBJID, separated by &quot;-&quot;." />
        <VARIABLE NAME="HOSEQ" LABEL="Sequence Number" TYPE="Num" LENGTH="8" ROLE="Identifier" CORE="Req" CONTROLLED="" DESCRIPTION="" ORIGIN="Derived" ORDER="8" Comments="Sort by the key variables specified in the domain list. Assign HOSEQ=1 to the first record and increment HOSEQ by 1 for each additional record so that HOSEQ is unique for each record within a USUBJID." />
        <VARIABLE NAME="HOGRPID" LABEL="Group ID" TYPE="Char" LENGTH="20" ROLE="Identifier" CORE="" CONTROLLED="" DESCRIPTION="" ORIGIN="Assigned" ORDER="9" Comments="" />
        <VARIABLE NAME="HOREFID" LABEL="Reference ID" TYPE="Char" LENGTH="20" ROLE="Identifier" CORE="" CONTROLLED="" DESCRIPTION="" ORIGIN="Assigned" ORDER="10" Comments="" />
        <VARIABLE NAME="HOSPID" LABEL="Sponsor-Defined Identifier" TYPE="Char" LENGTH="20" ROLE="Identifier" CORE="" CONTROLLED="" DESCRIPTION="" ORIGIN="Assigned" ORDER="11" Comments="" />
        <VARIABLE NAME="HOTERM" LABEL="Reported Term" TYPE="Char" LENGTH="200" ROLE="Topic" CORE="" CONTROLLED="" DESCRIPTION="" ORIGIN="Assigned" ORDER="20" Comments="" />
        <VARIABLE NAME="HODECOD" LABEL="Dictionary-Derived Term" TYPE="Char" LENGTH="200" ROLE="Synonym Qualifier" CORE="" CONTROLLED="" DESCRIPTION="" ORIGIN="Assigned" ORDER="24" Comments="MedDRA version 13.1" />
        <VARIABLE NAME="HOCAT" LABEL="Category" TYPE="Char" LENGTH="200" ROLE="Grouping Qualifier" CORE="" CONTROLLED="" DESCRIPTION="" ORIGIN="Assigned" ORDER="30" Comments="" />
        <VARIABLE NAME="HOSCAT" LABEL="Subcategory" TYPE="Char" LENGTH="200" ROLE="Grouping Qualifier" CORE="" CONTROLLED="" DESCRIPTION="" ORIGIN="Assigned" ORDER="31" Comments="" />
        <VARIABLE NAME="HOPRESP" LABEL="Pre-specified" TYPE="Char" LENGTH="1" ROLE="Record Qualifier" CORE="" CONTROLLED="" DESCRIPTION="" ORIGIN="Assigned" ORDER="32" Comments="" />
        <VARIABLE NAME="HOOCCUR" LABEL="Occurrence" TYPE="Char" LENGTH="1" ROLE="Record Qualifier" CORE="" CONTROLLED="NY" DESCRIPTION="" ORIGIN="Assigned" ORDER="33" Comments="" />
        <VARIABLE NAME="HOSTAT" LABEL="Completion Status" TYPE="Char" LENGTH="8" ROLE="Record Qualifier" CORE="" CONTROLLED="ND" DESCRIPTION="" ORIGIN="Assigned" ORDER="34" Comments="" />
        <VARIABLE NAME="HOREASND" LABEL="Reason Not Done" TYPE="Char" LENGTH="200" ROLE="Record Qualifier" CORE="" CONTROLLED="" DESCRIPTION="" ORIGIN="Assigned" ORDER="35" Comments="" />
        <VARIABLE NAME="HOSTDTC" LABEL="Start Date/Time of Observation" TYPE="Char" LENGTH="20" ROLE="Timing" CORE="" CONTROLLED="" DESCRIPTION="" ORIGIN="Assigned" ORDER="106" Comments="" />
        <VARIABLE NAME="HOENDTC" LABEL="End Date/Time of Observation" TYPE="Char" LENGTH="20" ROLE="Timing" CORE="" CONTROLLED="" DESCRIPTION="" ORIGIN="Assigned" ORDER="107" Comments="" />
        <VARIABLE NAME="HOSTDY" LABEL="Study Day of Start of Observation" TYPE="Num" LENGTH="8" ROLE="Timing" CORE="" CONTROLLED="" DESCRIPTION="" ORIGIN="Derived" ORDER="109" Comments="Relative study day between &lt;HOSTDTC&gt; and DM.RFSTDTC. Add 1 if the difference is greater than or equal to 0." />
        <VARIABLE NAME="HOENDY" LABEL="Study Day of End of Observation" TYPE="Num" LENGTH="8" ROLE="Timing" CORE="" CONTROLLED="" DESCRIPTION="" ORIGIN="Derived" ORDER="110" Comments="Relative study day between &lt;HOENDTC&gt; and DM.RFSTDTC. Add 1 if the difference is greater than or equal to 0." />
        <VARIABLE NAME="HOENRF" LABEL="End Relative to Reference Period" TYPE="Char" LENGTH="12" ROLE="Timing" CORE="" CONTROLLED="STENRF" DESCRIPTION="" ORIGIN="Assigned" ORDER="118" Comments="" />
      </VARIABLES>
      <KEYVARIABLES>
        <VARIABLE NAME="STUDYID" />
        <VARIABLE NAME="USUBJID" />
        <VARIABLE NAME="HOCAT" />
        <VARIABLE NAME="HOSCAT" />
        <VARIABLE NAME="HOSTDTC" />
        <VARIABLE NAME="HOTERM" />
      </KEYVARIABLES>
    </DOMAIN>
    <DOMAIN CODE="EG" NAME="ECG Test Results" STRUCTURE="One record per ECG observation per time point per visit per subject" CLASS="Findings" DESCRIPTION="">
      <VARIABLES>
        <VARIABLE NAME="STUDYID" LABEL="Study Identifier" TYPE="Char" LENGTH="20" ROLE="Identifier" CORE="Req" CONTROLLED="" DESCRIPTION="" ORIGIN="Assigned" ORDER="1" Comments="" />
        <VARIABLE NAME="DOMAIN" LABEL="Domain Abbreviation" TYPE="Char" LENGTH="2" ROLE="Identifier" CORE="Req" CONTROLLED="" DESCRIPTION="" ORIGIN="Assigned" ORDER="2" Comments="" />
        <VARIABLE NAME="USUBJID" LABEL="Unique Subject Identifier" TYPE="Char" LENGTH="25" ROLE="Identifier" CORE="Req" CONTROLLED="" DESCRIPTION="" ORIGIN="Derived" ORDER="4" Comments="Concatenate STUDYID, SITEID and SUBJID, separated by &quot;-&quot;." />
        <VARIABLE NAME="EGSEQ" LABEL="Sequence Number" TYPE="Num" LENGTH="8" ROLE="Identifier" CORE="Req" CONTROLLED="" DESCRIPTION="" ORIGIN="Derived" ORDER="8" Comments="Sort by the key variables specified in the domain list. Assign EGSEQ=1 to the first record and increment EGSEQ by 1 for each additional record so that EGSEQ is unique for each record within a USUBJID." />
        <VARIABLE NAME="EGGRPID" LABEL="Group ID" TYPE="Char" LENGTH="20" ROLE="Identifier" CORE="Perm" CONTROLLED="" DESCRIPTION="" ORIGIN="Assigned" ORDER="9" Comments="" />
        <VARIABLE NAME="EGREFID" LABEL="ECG Reference ID" TYPE="Char" LENGTH="20" ROLE="Identifier" CORE="Perm" CONTROLLED="" DESCRIPTION="" ORIGIN="Assigned" ORDER="10" Comments="" />
        <VARIABLE NAME="EGSPID" LABEL="Sponsor-Defined Identifier" TYPE="Char" LENGTH="20" ROLE="Identifier" CORE="Perm" CONTROLLED="" DESCRIPTION="" ORIGIN="Assigned" ORDER="11" Comments="" />
        <VARIABLE NAME="EGTESTCD" LABEL="ECG Test or Examination Short Name" TYPE="Char" LENGTH="8" ROLE="Topic" CORE="Req" CONTROLLED="" DESCRIPTION="" ORIGIN="Assigned" ORDER="20" Comments="" />
        <VARIABLE NAME="EGTEST" LABEL="ECG Test or Examination Name" TYPE="Char" LENGTH="40" ROLE="Synonym Qualifier" CORE="Req" CONTROLLED="" DESCRIPTION="" ORIGIN="Assigned" ORDER="21" Comments="" />
        <VARIABLE NAME="EGCAT" LABEL="Category for ECG" TYPE="Char" LENGTH="200" ROLE="Grouping Qualifier" CORE="Perm" CONTROLLED="" DESCRIPTION="" ORIGIN="Assigned" ORDER="24" Comments="" />
        <VARIABLE NAME="EGSCAT" LABEL="Subcategory for ECG" TYPE="Char" LENGTH="200" ROLE="Grouping Qualifier" CORE="Perm" CONTROLLED="" DESCRIPTION="" ORIGIN="Assigned" ORDER="25" Comments="" />
        <VARIABLE NAME="EGPOS" LABEL="ECG Position of Subject" TYPE="Char" LENGTH="50" ROLE="Record Qualifier" CORE="Perm" CONTROLLED="(POSITION)" DESCRIPTION="" ORIGIN="Protocol" ORDER="26" Comments="" />
        <VARIABLE NAME="EGORRES" LABEL="Result or Finding in Original Units" TYPE="Char" LENGTH="200" ROLE="Result Qualifier" CORE="Exp" CONTROLLED="" DESCRIPTION="" ORIGIN="Assigned" ORDER="28" Comments="" />
        <VARIABLE NAME="EGORRESU" LABEL="Original Units" TYPE="Char" LENGTH="20" ROLE="Variable Qualifier" CORE="Perm" CONTROLLED="(UNIT)" DESCRIPTION="" ORIGIN="Assigned" ORDER="29" Comments="" />
        <VARIABLE NAME="EGSTRESC" LABEL="Character Result/Finding in Std Format" TYPE="Char" LENGTH="200" ROLE="Result Qualifier" CORE="Exp" CONTROLLED="(EGSTRESC)" DESCRIPTION="" ORIGIN="Derived" ORDER="32" Comments="If data collected in non-standard units, then data is converted using standard conversion factors to standard units; else equal to EGORRES." />
        <VARIABLE NAME="EGSTRESN" LABEL="Numeric Result/Finding in Standard Units" TYPE="Num" LENGTH="8" ROLE="Result Qualifier" CORE="Perm" CONTROLLED="" DESCRIPTION="" ORIGIN="Derived" ORDER="33" Comments="Equal to numeric value of EGSTRESC" />
        <VARIABLE NAME="EGSTRESU" LABEL="Standard Units" TYPE="Char" LENGTH="20" ROLE="Variable Qualifier" CORE="Perm" CONTROLLED="(UNIT)" DESCRIPTION="" ORIGIN="Assigned" ORDER="34" Comments="" />
        <VARIABLE NAME="EGSTAT" LABEL="Completion Status" TYPE="Char" LENGTH="8" ROLE="Record Qualifier" CORE="Perm" CONTROLLED="(ND)" DESCRIPTION="" ORIGIN="Assigned" ORDER="40" Comments="" />
        <VARIABLE NAME="EGREASND" LABEL="Reason ECG Not Performed" TYPE="Char" LENGTH="200" ROLE="Record Qualifier" CORE="Perm" CONTROLLED="" DESCRIPTION="" ORIGIN="Assigned" ORDER="41" Comments="" />
        <VARIABLE NAME="EGXFN" LABEL="ECG External File Path" TYPE="Char" LENGTH="200" ROLE="Record Qualifier" CORE="Perm" CONTROLLED="" DESCRIPTION="" ORIGIN="Assigned" ORDER="42" Comments="" />
        <VARIABLE NAME="EGNAM" LABEL="Vendor Name" TYPE="Char" LENGTH="200" ROLE="Record Qualifier" CORE="Perm" CONTROLLED="" DESCRIPTION="" ORIGIN="Assigned" ORDER="43" Comments="" />
        <VARIABLE NAME="EGLOC" LABEL="Lead Location Used for Measurement" TYPE="Char" LENGTH="200" ROLE="Record Qualifier" CORE="Perm" CONTROLLED="(LOC)" DESCRIPTION="" ORIGIN="Protocol" ORDER="49" Comments="" />
        <VARIABLE NAME="EGMETHOD" LABEL="Method of ECG Test" TYPE="Char" LENGTH="200" ROLE="Record Qualifier" CORE="Perm" CONTROLLED="(EGMETHOD)" DESCRIPTION="" ORIGIN="Protocol" ORDER="53" Comments="" />
        <VARIABLE NAME="EGLEAD" LABEL="Lead Identified to Collect Measurements" TYPE="Char" LENGTH="10" ROLE="Record Qualifier" CORE="Perm" CONTROLLED="(EGLEAD)" DESCRIPTION="" ORIGIN="Assigned" ORDER="54" Comments="" />
        <VARIABLE NAME="EGBLFL" LABEL="Baseline Flag" TYPE="Char" LENGTH="1" ROLE="Record Qualifier" CORE="Exp" CONTROLLED="(NY)" DESCRIPTION="" ORIGIN="Derived" ORDER="56" Comments="Derivation of baseline: Safety subjects only: EGBLFL=Y for last non missing record on or before the first dose date (RFSTDTC)." />
        <VARIABLE NAME="EGDRVFL" LABEL="Derived Flag" TYPE="Char" LENGTH="1" ROLE="Record Qualifier" CORE="Perm" CONTROLLED="(NY)" DESCRIPTION="" ORIGIN="Assigned" ORDER="58" Comments="" />
        <VARIABLE NAME="EGEVAL" LABEL="Evaluator" TYPE="Char" LENGTH="20" ROLE="Record Qualifier" CORE="Perm" CONTROLLED="" DESCRIPTION="" ORIGIN="Assigned" ORDER="59" Comments="" />
        <VARIABLE NAME="VISITNUM" LABEL="Visit Number" TYPE="Num" LENGTH="8" ROLE="Timing" CORE="Exp" CONTROLLED="" DESCRIPTION="" ORIGIN="Assigned" ORDER="100" Comments="" />
        <VARIABLE NAME="VISIT" LABEL="Visit Name" TYPE="Char" LENGTH="200" ROLE="Timing" CORE="Perm" CONTROLLED="" DESCRIPTION="" ORIGIN="Assigned" ORDER="101" Comments="" />
        <VARIABLE NAME="VISITDY" LABEL="Planned Study Day of Visit" TYPE="Num" LENGTH="8" ROLE="Timing" CORE="Perm" CONTROLLED="" DESCRIPTION="" ORIGIN="Protocol" ORDER="102" Comments="" />
        <VARIABLE NAME="EGDTC" LABEL="Date/Time of ECG" TYPE="Char" LENGTH="20" ROLE="Timing" CORE="Exp" CONTROLLED="ISO 8601" DESCRIPTION="" ORIGIN="Assigned" ORDER="105" Comments="" />
        <VARIABLE NAME="EGDY" LABEL="Study Day of ECG" TYPE="Num" LENGTH="8" ROLE="Timing" CORE="Perm" CONTROLLED="" DESCRIPTION="" ORIGIN="Derived" ORDER="108" Comments="Relative study day between &lt;EGDTC&gt; and DM.RFSTDTC. Add 1 if the difference is greater than or equal to 0." />
        <VARIABLE NAME="EGTPT" LABEL="Planned Time Point Name" TYPE="Char" LENGTH="200" ROLE="Timing" CORE="Perm" CONTROLLED="" DESCRIPTION="" ORIGIN="Assigned" ORDER="112" Comments="" />
        <VARIABLE NAME="EGTPTNUM" LABEL="Planned Time Point Number" TYPE="Num" LENGTH="8" ROLE="Timing" CORE="Perm" CONTROLLED="" DESCRIPTION="" ORIGIN="Assigned" ORDER="113" Comments="" />
        <VARIABLE NAME="EGELTM" LABEL="Planned Elapsed Time from Time Point Ref" TYPE="Char" LENGTH="20" ROLE="Timing" CORE="Perm" CONTROLLED="ISO 8601" DESCRIPTION="" ORIGIN="Assigned" ORDER="114" Comments="" />
        <VARIABLE NAME="EGTPTREF" LABEL="Time Point Reference" TYPE="Char" LENGTH="200" ROLE="Timing" CORE="Perm" CONTROLLED="" DESCRIPTION="" ORIGIN="Assigned" ORDER="115" Comments="" />
        <VARIABLE NAME="EGRFTDTC" LABEL="Date/Time of Reference Time Point" TYPE="Char" LENGTH="20" ROLE="Timing" CORE="Perm" CONTROLLED="ISO 8601" DESCRIPTION="" ORIGIN="Assigned" ORDER="116" Comments="" />
      </VARIABLES>
      <KEYVARIABLES>
        <VARIABLE NAME="STUDYID" />
        <VARIABLE NAME="USUBJID" />
        <VARIABLE NAME="VISITNUM" />
        <VARIABLE NAME="VISIT" />
        <VARIABLE NAME="EGTPTNUM" />
        <VARIABLE NAME="EGTPT" />
        <VARIABLE NAME="EGDTC" />
        <VARIABLE NAME="EGCAT" />
        <VARIABLE NAME="EGTESTCD" />
      </KEYVARIABLES>
    </DOMAIN>
    <DOMAIN CODE="IE" NAME="Inclusion/Exclusion Criteria Not Met" STRUCTURE="One record per inclusion/exclusion criterion not met per subject" CLASS="Findings" DESCRIPTION="">
      <VARIABLES>
        <VARIABLE NAME="STUDYID" LABEL="Study Identifier" TYPE="Char" LENGTH="20" ROLE="Identifier" CORE="Req" CONTROLLED="" DESCRIPTION="" ORIGIN="Assigned" ORDER="1" Comments="" />
        <VARIABLE NAME="DOMAIN" LABEL="Domain Abbreviation" TYPE="Char" LENGTH="2" ROLE="Identifier" CORE="Req" CONTROLLED="" DESCRIPTION="" ORIGIN="Assigned" ORDER="2" Comments="" />
        <VARIABLE NAME="USUBJID" LABEL="Unique Subject Identifier" TYPE="Char" LENGTH="25" ROLE="Identifier" CORE="Req" CONTROLLED="" DESCRIPTION="" ORIGIN="Derived" ORDER="4" Comments="Concatenate STUDYID, SITEID and SUBJID, separated by &quot;-&quot;." />
        <VARIABLE NAME="IESEQ" LABEL="Sequence Number" TYPE="Num" LENGTH="8" ROLE="Identifier" CORE="Req" CONTROLLED="" DESCRIPTION="" ORIGIN="Derived" ORDER="8" Comments="Sort by the key variables specified in the domain list. Assign IESEQ=1 to the first record and increment IESEQ by 1 for each additional record so that IESEQ is unique for each record within a USUBJID." />
        <VARIABLE NAME="IESPID" LABEL="Sponsor-Defined Identifier" TYPE="Char" LENGTH="20" ROLE="Identifier" CORE="Perm" CONTROLLED="" DESCRIPTION="" ORIGIN="Assigned" ORDER="11" Comments="" />
        <VARIABLE NAME="IETESTCD" LABEL="Inclusion/Exclusion Criterion Short Name" TYPE="Char" LENGTH="8" ROLE="Topic" CORE="Req" CONTROLLED="" DESCRIPTION="" ORIGIN="Assigned" ORDER="20" Comments="" />
        <VARIABLE NAME="IETEST" LABEL="Inclusion/Exclusion Criterion" TYPE="Char" LENGTH="200" ROLE="Synonym Qualifier" CORE="Req" CONTROLLED="" DESCRIPTION="" ORIGIN="Assigned" ORDER="21" Comments="" />
        <VARIABLE NAME="IECAT" LABEL="Inclusion/Exclusion Category" TYPE="Char" LENGTH="200" ROLE="Grouping Qualifier" CORE="Req" CONTROLLED="(IECAT)" DESCRIPTION="" ORIGIN="Assigned" ORDER="24" Comments="" />
        <VARIABLE NAME="IESCAT" LABEL="Inclusion/Exclusion Subcategory" TYPE="Char" LENGTH="200" ROLE="Grouping Qualifier" CORE="Perm" CONTROLLED="" DESCRIPTION="" ORIGIN="Assigned" ORDER="25" Comments="" />
        <VARIABLE NAME="IEORRES" LABEL="I/E Criterion Original Result" TYPE="Char" LENGTH="1" ROLE="Result Qualifier" CORE="Req" CONTROLLED="(NY)" DESCRIPTION="" ORIGIN="Assigned" ORDER="28" Comments="" />
        <VARIABLE NAME="IESTRESC" LABEL="I/E Criterion Result in Std Format" TYPE="Char" LENGTH="1" ROLE="Result Qualifier" CORE="Req" CONTROLLED="(NY)" DESCRIPTION="" ORIGIN="Derived" ORDER="32" Comments="Equal to IEORRES." />
        <VARIABLE NAME="VISITNUM" LABEL="Visit Number" TYPE="Num" LENGTH="8" ROLE="Timing" CORE="Perm" CONTROLLED="" DESCRIPTION="" ORIGIN="Assigned" ORDER="100" Comments="" />
        <VARIABLE NAME="VISIT" LABEL="Visit Name" TYPE="Char" LENGTH="200" ROLE="Timing" CORE="Perm" CONTROLLED="" DESCRIPTION="" ORIGIN="Assigned" ORDER="101" Comments="" />
        <VARIABLE NAME="VISITDY" LABEL="Planned Study Day of Visit" TYPE="Num" LENGTH="8" ROLE="Timing" CORE="Perm" CONTROLLED="" DESCRIPTION="" ORIGIN="Protocol" ORDER="102" Comments="" />
        <VARIABLE NAME="IEDTC" LABEL="Date/Time of Collection" TYPE="Char" LENGTH="20" ROLE="Timing" CORE="Perm" CONTROLLED="ISO 8601" DESCRIPTION="" ORIGIN="Assigned" ORDER="105" Comments="" />
        <VARIABLE NAME="IEDY" LABEL="Study Day of Collection" TYPE="Num" LENGTH="8" ROLE="Timing" CORE="Perm" CONTROLLED="" DESCRIPTION="" ORIGIN="Derived" ORDER="108" Comments="Relative study day between &lt;IEDTC&gt; and DM.RFSTDTC. Add 1 if the difference is greater than or equal to 0." />
      </VARIABLES>
      <KEYVARIABLES>
        <VARIABLE NAME="STUDYID" />
        <VARIABLE NAME="USUBJID" />
        <VARIABLE NAME="VISITNUM" />
        <VARIABLE NAME="VISIT" />
        <VARIABLE NAME="IEDTC" />
        <VARIABLE NAME="IECAT" />
        <VARIABLE NAME="IETESTCD" />
      </KEYVARIABLES>
    </DOMAIN>
    <DOMAIN CODE="LB" NAME="Laboratory Test Results" STRUCTURE="One record per analyte per planned time point number per time point reference per visit per subject" CLASS="Findings" DESCRIPTION="">
      <VARIABLES>
        <VARIABLE NAME="STUDYID" LABEL="Study Identifier" TYPE="Char" LENGTH="20" ROLE="Identifier" CORE="Req" CONTROLLED="" DESCRIPTION="" ORIGIN="Assigned" ORDER="1" Comments="" />
        <VARIABLE NAME="DOMAIN" LABEL="Domain Abbreviation" TYPE="Char" LENGTH="2" ROLE="Identifier" CORE="Req" CONTROLLED="" DESCRIPTION="" ORIGIN="Assigned" ORDER="2" Comments="" />
        <VARIABLE NAME="USUBJID" LABEL="Unique Subject Identifier" TYPE="Char" LENGTH="25" ROLE="Identifier" CORE="Req" CONTROLLED="" DESCRIPTION="" ORIGIN="Derived" ORDER="4" Comments="Concatenate STUDYID, SITEID and SUBJID, separated by &quot;-&quot;." />
        <VARIABLE NAME="LBSEQ" LABEL="Sequence Number" TYPE="Num" LENGTH="8" ROLE="Identifier" CORE="Req" CONTROLLED="" DESCRIPTION="" ORIGIN="Derived" ORDER="8" Comments="Sort by the key variables specified in the domain list. Assign LBSEQ=1 to the first record and increment LBSEQ by 1 for each additional record so that LBSEQ is unique for each record within a USUBJID." />
        <VARIABLE NAME="LBGRPID" LABEL="Group ID" TYPE="Char" LENGTH="20" ROLE="Identifier" CORE="Perm" CONTROLLED="" DESCRIPTION="" ORIGIN="Assigned" ORDER="9" Comments="" />
        <VARIABLE NAME="LBREFID" LABEL="Specimen ID" TYPE="Char" LENGTH="20" ROLE="Identifier" CORE="Perm" CONTROLLED="" DESCRIPTION="" ORIGIN="Assigned" ORDER="10" Comments="" />
        <VARIABLE NAME="LBSPID" LABEL="Sponsor-Defined Identifier" TYPE="Char" LENGTH="20" ROLE="Identifier" CORE="Perm" CONTROLLED="" DESCRIPTION="" ORIGIN="Assigned" ORDER="11" Comments="" />
        <VARIABLE NAME="LBTESTCD" LABEL="Lab Test or Examination Short Name" TYPE="Char" LENGTH="8" ROLE="Topic" CORE="Req" CONTROLLED="" DESCRIPTION="" ORIGIN="Assigned" ORDER="20" Comments="" />
        <VARIABLE NAME="LBTEST" LABEL="Lab Test or Examination Name" TYPE="Char" LENGTH="40" ROLE="Synonym Qualifier" CORE="Req" CONTROLLED="" DESCRIPTION="" ORIGIN="eDT" ORDER="21" Comments="" />
        <VARIABLE NAME="LBCAT" LABEL="Category for Lab Test" TYPE="Char" LENGTH="200" ROLE="Grouping Qualifier" CORE="Exp" CONTROLLED="" DESCRIPTION="" ORIGIN="eDT" ORDER="24" Comments="" />
        <VARIABLE NAME="LBSCAT" LABEL="Subcategory for Lab Test" TYPE="Char" LENGTH="200" ROLE="Grouping Qualifier" CORE="Perm" CONTROLLED="" DESCRIPTION="" ORIGIN="eDT" ORDER="25" Comments="" />
        <VARIABLE NAME="LBORRES" LABEL="Result or Finding in Original Units" TYPE="Char" LENGTH="200" ROLE="Result Qualifier" CORE="Exp" CONTROLLED="" DESCRIPTION="" ORIGIN="eDT" ORDER="28" Comments="" />
        <VARIABLE NAME="LBORRESU" LABEL="Original Units" TYPE="Char" LENGTH="20" ROLE="Variable Qualifier" CORE="Exp" CONTROLLED="(UNIT)" DESCRIPTION="" ORIGIN="eDT" ORDER="29" Comments="" />
        <VARIABLE NAME="LBORNRLO" LABEL="Reference Range Lower Limit in Orig Unit" TYPE="Char" LENGTH="20" ROLE="Variable Qualifier" CORE="Exp" CONTROLLED="" DESCRIPTION="" ORIGIN="eDT" ORDER="30" Comments="" />
        <VARIABLE NAME="LBORNRHI" LABEL="Reference Range Upper Limit in Orig Unit" TYPE="Char" LENGTH="20" ROLE="Variable Qualifier" CORE="Exp" CONTROLLED="" DESCRIPTION="" ORIGIN="eDT" ORDER="31" Comments="" />
        <VARIABLE NAME="LBSTRESC" LABEL="Character Result/Finding in Std Format" TYPE="Char" LENGTH="200" ROLE="Result Qualifier" CORE="Exp" CONTROLLED="" DESCRIPTION="" ORIGIN="Derived" ORDER="32" Comments="If data collected in non-standard units, then data is converted using standard conversion factors to standard units; else equal to LBORRES." />
        <VARIABLE NAME="LBSTRESN" LABEL="Numeric Result/Finding in Standard Units" TYPE="Num" LENGTH="8" ROLE="Result Qualifier" CORE="Exp" CONTROLLED="" DESCRIPTION="" ORIGIN="Derived" ORDER="33" Comments="Equal to numeric value of LBSTRESC" />
        <VARIABLE NAME="LBSTRESU" LABEL="Standard Units" TYPE="Char" LENGTH="20" ROLE="Variable Qualifier" CORE="Exp" CONTROLLED="(UNIT)" DESCRIPTION="" ORIGIN="Assigned" ORDER="34" Comments="" />
        <VARIABLE NAME="LBSTNRLO" LABEL="Reference Range Lower Limit-Std Units" TYPE="Num" LENGTH="8" ROLE="Variable Qualifier" CORE="Exp" CONTROLLED="" DESCRIPTION="" ORIGIN="Derived" ORDER="35" Comments="If data collected in non-standard units, then LBORNRLO is converted using standard conversion factors to standard units; else equal to numeric value of LBORNRLO." />
        <VARIABLE NAME="LBSTNRHI" LABEL="Reference Range Upper Limit-Std Units" TYPE="Num" LENGTH="8" ROLE="Variable Qualifier" CORE="Exp" CONTROLLED="" DESCRIPTION="" ORIGIN="Derived" ORDER="36" Comments="If data collected in non-standard units, then LBORNRHI is converted using standard conversion factors to standard units; else equal to numeric value of LBORNRHI." />
        <VARIABLE NAME="LBSTNRC" LABEL="Reference Range for Char Rslt-Std Units" TYPE="Char" LENGTH="50" ROLE="Variable Qualifier" CORE="Perm" CONTROLLED="" DESCRIPTION="" ORIGIN="Assigned" ORDER="37" Comments="" />
        <VARIABLE NAME="LBNRIND" LABEL="Reference Range Indicator" TYPE="Char" LENGTH="10" ROLE="Variable Qualifier" CORE="Exp" CONTROLLED="" DESCRIPTION="" ORIGIN="Derived" ORDER="38" Comments="Reference Range Indicator based upon standard results and ranges." />
        <VARIABLE NAME="LBSTAT" LABEL="Completion Status" TYPE="Char" LENGTH="8" ROLE="Record Qualifier" CORE="Perm" CONTROLLED="(ND)" DESCRIPTION="" ORIGIN="eDT" ORDER="40" Comments="" />
        <VARIABLE NAME="LBREASND" LABEL="Reason Test Not Done" TYPE="Char" LENGTH="200" ROLE="Record Qualifier" CORE="Perm" CONTROLLED="" DESCRIPTION="" ORIGIN="eDT" ORDER="41" Comments="" />
        <VARIABLE NAME="LBNAM" LABEL="Vendor Name" TYPE="Char" LENGTH="200" ROLE="Record Qualifier" CORE="Perm" CONTROLLED="" DESCRIPTION="" ORIGIN="eDT" ORDER="43" Comments="" />
        <VARIABLE NAME="LBLOINC" LABEL="LOINC Code" TYPE="Char" LENGTH="50" ROLE="Synonym Qualifier" CORE="Perm" CONTROLLED="" DESCRIPTION="" ORIGIN="eDT" ORDER="44" Comments="" />
        <VARIABLE NAME="LBSPEC" LABEL="Specimen Type" TYPE="Char" LENGTH="20" ROLE="Record Qualifier" CORE="Perm" CONTROLLED="" DESCRIPTION="" ORIGIN="eDT" ORDER="45" Comments="" />
        <VARIABLE NAME="LBSPCCND" LABEL="Specimen Condition" TYPE="Char" LENGTH="50" ROLE="Record Qualifier" CORE="Perm" CONTROLLED="" DESCRIPTION="" ORIGIN="eDT" ORDER="47" Comments="" />
        <VARIABLE NAME="LBMETHOD" LABEL="Method of Test or Examination" TYPE="Char" LENGTH="200" ROLE="Record Qualifier" CORE="Perm" CONTROLLED="" DESCRIPTION="" ORIGIN="eDT" ORDER="53" Comments="" />
        <VARIABLE NAME="LBBLFL" LABEL="Baseline Flag" TYPE="Char" LENGTH="1" ROLE="Record Qualifier" CORE="Exp" CONTROLLED="(NY)" DESCRIPTION="" ORIGIN="Derived" ORDER="56" Comments="Derivation of baseline: Safety subjects only: LBBLFL=Y for last non missing record on or before the first dose date (RFSTDTC)." />
        <VARIABLE NAME="LBFAST" LABEL="Fasting Status" TYPE="Char" LENGTH="1" ROLE="Record Qualifier" CORE="Perm" CONTROLLED="(NY)" DESCRIPTION="" ORIGIN="eDT" ORDER="57" Comments="" />
        <VARIABLE NAME="LBDRVFL" LABEL="Derived Flag" TYPE="Char" LENGTH="1" ROLE="Record Qualifier" CORE="Perm" CONTROLLED="(NY)" DESCRIPTION="" ORIGIN="eDT" ORDER="58" Comments="" />
        <VARIABLE NAME="LBTOX" LABEL="Toxicity" TYPE="Char" LENGTH="50" ROLE="Variable Qualifier" CORE="Perm" CONTROLLED="" DESCRIPTION="" ORIGIN="Derived" ORDER="62" Comments="Calculated based on AECTC V4.0" />
        <VARIABLE NAME="LBTOXGR" LABEL="Standard Toxicity Grade" TYPE="Char" LENGTH="1" ROLE="Variable Qualifier" CORE="Perm" CONTROLLED="" DESCRIPTION="" ORIGIN="Derived" ORDER="63" Comments="Calculated based on AECTC V4.0" />
        <VARIABLE NAME="VISITNUM" LABEL="Visit Number" TYPE="Num" LENGTH="8" ROLE="Timing" CORE="Exp" CONTROLLED="" DESCRIPTION="" ORIGIN="Assigned" ORDER="100" Comments="" />
        <VARIABLE NAME="VISIT" LABEL="Visit Name" TYPE="Char" LENGTH="200" ROLE="Timing" CORE="Perm" CONTROLLED="" DESCRIPTION="" ORIGIN="Assigned" ORDER="101" Comments="" />
        <VARIABLE NAME="VISITDY" LABEL="Planned Study Day of Visit" TYPE="Num" LENGTH="8" ROLE="Timing" CORE="Perm" CONTROLLED="" DESCRIPTION="" ORIGIN="Protocol" ORDER="102" Comments="" />
        <VARIABLE NAME="LBDTC" LABEL="Date/Time of Specimen Collection" TYPE="Char" LENGTH="20" ROLE="Timing" CORE="Exp" CONTROLLED="ISO 8601" DESCRIPTION="" ORIGIN="Assigned" ORDER="105" Comments="" />
        <VARIABLE NAME="LBENDTC" LABEL="End Date/Time of Specimen Collection" TYPE="Char" LENGTH="20" ROLE="Timing" CORE="Perm" CONTROLLED="ISO 8601" DESCRIPTION="" ORIGIN="Assigned" ORDER="107" Comments="" />
        <VARIABLE NAME="LBDY" LABEL="Study Day of Specimen Collection" TYPE="Num" LENGTH="8" ROLE="Timing" CORE="Perm" CONTROLLED="" DESCRIPTION="" ORIGIN="Derived" ORDER="108" Comments="Relative study day between &lt;LBDTC&gt; and DM.RFSTDTC. Add 1 if the difference is greater than or equal to 0." />
        <VARIABLE NAME="LBENDY" LABEL="Study Day of End of Observation" TYPE="Num" LENGTH="8" ROLE="Timing" CORE="Perm" CONTROLLED="" DESCRIPTION="" ORIGIN="Derived" ORDER="110" Comments="Relative study day between &lt;LBENDTC&gt; and DM.RFSTDTC. Add 1 if the difference is greater than or equal to 0." />
        <VARIABLE NAME="LBTPT" LABEL="Planned Time Point Name" TYPE="Char" LENGTH="200" ROLE="Timing" CORE="Perm" CONTROLLED="" DESCRIPTION="" ORIGIN="Assigned" ORDER="112" Comments="" />
        <VARIABLE NAME="LBTPTNUM" LABEL="Planned Time Point Number" TYPE="Num" LENGTH="8" ROLE="Timing" CORE="Perm" CONTROLLED="" DESCRIPTION="" ORIGIN="Assigned" ORDER="113" Comments="" />
        <VARIABLE NAME="LBELTM" LABEL="Planned Elapsed Time from Time Point Ref" TYPE="Char" LENGTH="20" ROLE="Timing" CORE="Perm" CONTROLLED="ISO 8601" DESCRIPTION="" ORIGIN="Assigned" ORDER="114" Comments="" />
        <VARIABLE NAME="LBTPTREF" LABEL="Time Point Reference" TYPE="Char" LENGTH="200" ROLE="Timing" CORE="Perm" CONTROLLED="" DESCRIPTION="" ORIGIN="Assigned" ORDER="115" Comments="" />
        <VARIABLE NAME="LBRFTDTC" LABEL="Date/Time of Reference Time Point" TYPE="Char" LENGTH="20" ROLE="Timing" CORE="Perm" CONTROLLED="ISO 8601" DESCRIPTION="" ORIGIN="Assigned" ORDER="116" Comments="" />
      </VARIABLES>
      <KEYVARIABLES>
        <VARIABLE NAME="STUDYID" />
        <VARIABLE NAME="USUBJID" />
        <VARIABLE NAME="VISITNUM" />
        <VARIABLE NAME="VISIT" />
        <VARIABLE NAME="LBTPTNUM" />
        <VARIABLE NAME="LBTPT" />
        <VARIABLE NAME="LBDTC" />
        <VARIABLE NAME="LBCAT" />
        <VARIABLE NAME="LBTESTCD" />
      </KEYVARIABLES>
    </DOMAIN>
    <DOMAIN CODE="PE" NAME="Physical Examination" STRUCTURE="One record per body system or abnormality per visit per subject" CLASS="Findings" DESCRIPTION="">
      <VARIABLES>
        <VARIABLE NAME="STUDYID" LABEL="Study Identifier" TYPE="Char" LENGTH="20" ROLE="Identifier" CORE="Req" CONTROLLED="" DESCRIPTION="" ORIGIN="Assigned" ORDER="1" Comments="" />
        <VARIABLE NAME="DOMAIN" LABEL="Domain Abbreviation" TYPE="Char" LENGTH="2" ROLE="Identifier" CORE="Req" CONTROLLED="" DESCRIPTION="" ORIGIN="Assigned" ORDER="2" Comments="" />
        <VARIABLE NAME="USUBJID" LABEL="Unique Subject Identifier" TYPE="Char" LENGTH="25" ROLE="Identifier" CORE="Req" CONTROLLED="" DESCRIPTION="" ORIGIN="Derived" ORDER="4" Comments="Concatenate STUDYID, SITEID and SUBJID, separated by &quot;-&quot;." />
        <VARIABLE NAME="PESEQ" LABEL="Sequence Number" TYPE="Num" LENGTH="8" ROLE="Identifier" CORE="Req" CONTROLLED="" DESCRIPTION="" ORIGIN="Derived" ORDER="8" Comments="Sort by the key variables specified in the domain list. Assign PESEQ=1 to the first record and increment PESEQ by 1 for each additional record so that PESEQ is unique for each record within a USUBJID." />
        <VARIABLE NAME="PEGRPID" LABEL="Group ID" TYPE="Char" LENGTH="20" ROLE="Identifier" CORE="Perm" CONTROLLED="" DESCRIPTION="" ORIGIN="Assigned" ORDER="9" Comments="" />
        <VARIABLE NAME="PESPID" LABEL="Sponsor-Defined Identifier" TYPE="Char" LENGTH="20" ROLE="Identifier" CORE="Perm" CONTROLLED="" DESCRIPTION="" ORIGIN="Assigned" ORDER="11" Comments="" />
        <VARIABLE NAME="PETESTCD" LABEL="Body System Examined Short Name" TYPE="Char" LENGTH="8" ROLE="Topic" CORE="Req" CONTROLLED="" DESCRIPTION="" ORIGIN="Assigned" ORDER="20" Comments="" />
        <VARIABLE NAME="PETEST" LABEL="Body System Examined" TYPE="Char" LENGTH="40" ROLE="Synonym Qualifier" CORE="Req" CONTROLLED="" DESCRIPTION="" ORIGIN="Assigned" ORDER="21" Comments="" />
        <VARIABLE NAME="PEMODIFY" LABEL="Modified Reported Term" TYPE="Char" LENGTH="200" ROLE="Synonym Qualifier" CORE="Perm" CONTROLLED="" DESCRIPTION="" ORIGIN="Assigned" ORDER="22" Comments="" />
        <VARIABLE NAME="PECAT" LABEL="Category for Examination" TYPE="Char" LENGTH="200" ROLE="Grouping Qualifier" CORE="Perm" CONTROLLED="" DESCRIPTION="" ORIGIN="Assigned" ORDER="24" Comments="" />
        <VARIABLE NAME="PESCAT" LABEL="Subcategory for Examination" TYPE="Char" LENGTH="200" ROLE="Grouping Qualifier" CORE="Perm" CONTROLLED="" DESCRIPTION="" ORIGIN="Assigned" ORDER="25" Comments="" />
        <VARIABLE NAME="PEBODSYS" LABEL="Body System or Organ Class" TYPE="Char" LENGTH="200" ROLE="Result Qualifier" CORE="Perm" CONTROLLED="" DESCRIPTION="" ORIGIN="Assigned" ORDER="27" Comments="" />
        <VARIABLE NAME="PEORRES" LABEL="Verbatim Examination Finding" TYPE="Char" LENGTH="200" ROLE="Result Qualifier" CORE="Exp" CONTROLLED="" DESCRIPTION="" ORIGIN="Assigned" ORDER="28" Comments="" />
        <VARIABLE NAME="PEORRESU" LABEL="Original Units" TYPE="Char" LENGTH="20" ROLE="Variable Qualifier" CORE="Perm" CONTROLLED="(UNIT)" DESCRIPTION="" ORIGIN="Assigned" ORDER="29" Comments="" />
        <VARIABLE NAME="PESTRESC" LABEL="Character Result/Finding in Std Format" TYPE="Char" LENGTH="200" ROLE="Result Qualifier" CORE="Exp" CONTROLLED="" DESCRIPTION="" ORIGIN="Derived" ORDER="32" Comments="If data collected in non-standard units, then data is converted using standard conversion factors to standard units; else equal to PEORRES." />
        <VARIABLE NAME="PESTAT" LABEL="Completion Status" TYPE="Char" LENGTH="8" ROLE="Record Qualifier" CORE="Perm" CONTROLLED="(ND)" DESCRIPTION="" ORIGIN="Assigned" ORDER="40" Comments="" />
        <VARIABLE NAME="PEREASND" LABEL="Reason Not Examined" TYPE="Char" LENGTH="200" ROLE="Record Qualifier" CORE="Perm" CONTROLLED="" DESCRIPTION="" ORIGIN="Assigned" ORDER="41" Comments="" />
        <VARIABLE NAME="PELOC" LABEL="Location of Physical Exam Finding" TYPE="Char" LENGTH="200" ROLE="Record Qualifier" CORE="Perm" CONTROLLED="(LOC)" DESCRIPTION="" ORIGIN="Assigned" ORDER="49" Comments="" />
        <VARIABLE NAME="PEMETHOD" LABEL="Method of Test or Examination" TYPE="Char" LENGTH="200" ROLE="Record Qualifier" CORE="Perm" CONTROLLED="" DESCRIPTION="" ORIGIN="Assigned" ORDER="53" Comments="" />
        <VARIABLE NAME="PEEVAL" LABEL="Evaluator" TYPE="Char" LENGTH="20" ROLE="Record Qualifier" CORE="Perm" CONTROLLED="" DESCRIPTION="" ORIGIN="Assigned" ORDER="59" Comments="" />
        <VARIABLE NAME="VISITNUM" LABEL="Visit Number" TYPE="Num" LENGTH="8" ROLE="Timing" CORE="Exp" CONTROLLED="" DESCRIPTION="" ORIGIN="Assigned" ORDER="100" Comments="" />
        <VARIABLE NAME="VISIT" LABEL="Visit Name" TYPE="Char" LENGTH="200" ROLE="Timing" CORE="Perm" CONTROLLED="" DESCRIPTION="" ORIGIN="Assigned" ORDER="101" Comments="" />
        <VARIABLE NAME="VISITDY" LABEL="Planned Study Day of Visit" TYPE="Num" LENGTH="8" ROLE="Timing" CORE="Perm" CONTROLLED="" DESCRIPTION="" ORIGIN="Protocol" ORDER="102" Comments="" />
        <VARIABLE NAME="PEDTC" LABEL="Date/Time of Examination" TYPE="Char" LENGTH="20" ROLE="Timing" CORE="Exp" CONTROLLED="ISO 8601" DESCRIPTION="" ORIGIN="Assigned" ORDER="105" Comments="" />
        <VARIABLE NAME="PEDY" LABEL="Study Day of Examination" TYPE="Num" LENGTH="8" ROLE="Timing" CORE="Perm" CONTROLLED="" DESCRIPTION="" ORIGIN="Derived" ORDER="108" Comments="Relative study day between &lt;PEDTC&gt; and DM.RFSTDTC. Add 1 if the difference is greater than or equal to 0." />
      </VARIABLES>
      <KEYVARIABLES>
        <VARIABLE NAME="STUDYID" />
        <VARIABLE NAME="USUBJID" />
        <VARIABLE NAME="VISITNUM" />
        <VARIABLE NAME="VISIT" />
        <VARIABLE NAME="PEDTC" />
        <VARIABLE NAME="PECAT" />
        <VARIABLE NAME="PETESTCD" />
      </KEYVARIABLES>
    </DOMAIN>
    <DOMAIN CODE="QS" NAME="Questionnaires" STRUCTURE="One record per questionnaire per question per time point per visit per subject" CLASS="Findings" DESCRIPTION="">
      <VARIABLES>
        <VARIABLE NAME="STUDYID" LABEL="Study Identifier" TYPE="Char" LENGTH="20" ROLE="Identifier" CORE="Req" CONTROLLED="" DESCRIPTION="" ORIGIN="Assigned" ORDER="1" Comments="" />
        <VARIABLE NAME="DOMAIN" LABEL="Domain Abbreviation" TYPE="Char" LENGTH="2" ROLE="Identifier" CORE="Req" CONTROLLED="" DESCRIPTION="" ORIGIN="Assigned" ORDER="2" Comments="" />
        <VARIABLE NAME="USUBJID" LABEL="Unique Subject Identifier" TYPE="Char" LENGTH="25" ROLE="Identifier" CORE="Req" CONTROLLED="" DESCRIPTION="" ORIGIN="Derived" ORDER="4" Comments="Concatenate STUDYID, SITEID and SUBJID, separated by &quot;-&quot;." />
        <VARIABLE NAME="QSSEQ" LABEL="Sequence Number" TYPE="Num" LENGTH="8" ROLE="Identifier" CORE="Req" CONTROLLED="" DESCRIPTION="" ORIGIN="Derived" ORDER="8" Comments="Sort by the key variables specified in the domain list. Assign QSSEQ=1 to the first record and increment QSSEQ by 1 for each additional record so that QSSEQ is unique for each record within a USUBJID." />
        <VARIABLE NAME="QSGRPID" LABEL="Group ID" TYPE="Char" LENGTH="20" ROLE="Identifier" CORE="Perm" CONTROLLED="" DESCRIPTION="" ORIGIN="Assigned" ORDER="9" Comments="" />
        <VARIABLE NAME="QSSPID" LABEL="Sponsor-Defined Identifier" TYPE="Char" LENGTH="20" ROLE="Identifier" CORE="Perm" CONTROLLED="" DESCRIPTION="" ORIGIN="Assigned" ORDER="11" Comments="" />
        <VARIABLE NAME="QSTESTCD" LABEL="Question Short Name" TYPE="Char" LENGTH="8" ROLE="Topic" CORE="Req" CONTROLLED="" DESCRIPTION="" ORIGIN="Assigned" ORDER="20" Comments="" />
        <VARIABLE NAME="QSTEST" LABEL="Question Name" TYPE="Char" LENGTH="40" ROLE="Synonym Qualifier" CORE="Req" CONTROLLED="" DESCRIPTION="" ORIGIN="Assigned" ORDER="21" Comments="" />
        <VARIABLE NAME="QSCAT" LABEL="Category of Question" TYPE="Char" LENGTH="200" ROLE="Grouping Qualifier" CORE="Req" CONTROLLED="" DESCRIPTION="" ORIGIN="Assigned" ORDER="24" Comments="" />
        <VARIABLE NAME="QSSCAT" LABEL="Subcategory for Question" TYPE="Char" LENGTH="200" ROLE="Grouping Qualifier" CORE="Perm" CONTROLLED="" DESCRIPTION="" ORIGIN="Assigned" ORDER="25" Comments="" />
        <VARIABLE NAME="QSORRES" LABEL="Finding in Original Units" TYPE="Char" LENGTH="200" ROLE="Result Qualifier" CORE="Exp" CONTROLLED="" DESCRIPTION="" ORIGIN="Assigned" ORDER="28" Comments="" />
        <VARIABLE NAME="QSORRESU" LABEL="Original Units" TYPE="Char" LENGTH="20" ROLE="Variable Qualifier" CORE="Perm" CONTROLLED="(UNIT)" DESCRIPTION="" ORIGIN="Assigned" ORDER="29" Comments="" />
        <VARIABLE NAME="QSSTRESC" LABEL="Character Result/Finding in Std Format" TYPE="Char" LENGTH="200" ROLE="Result Qualifier" CORE="Exp" CONTROLLED="" DESCRIPTION="" ORIGIN="Derived" ORDER="32" Comments="If questionnaire result is a numerically relevant code then code stored here; else character result equal to QSORRES. Character results contain mixed case data." />
        <VARIABLE NAME="QSSTRESN" LABEL="Numeric Finding in Standard Units" TYPE="Num" LENGTH="8" ROLE="Result Qualifier" CORE="Perm" CONTROLLED="" DESCRIPTION="" ORIGIN="Derived" ORDER="33" Comments="Equal to numeric value of QSSTRESC" />
        <VARIABLE NAME="QSSTRESU" LABEL="Standard Units" TYPE="Char" LENGTH="20" ROLE="Variable Qualifier" CORE="Perm" CONTROLLED="(UNIT)" DESCRIPTION="" ORIGIN="Assigned" ORDER="34" Comments="" />
        <VARIABLE NAME="QSSTAT" LABEL="Completion Status" TYPE="Char" LENGTH="8" ROLE="Record Qualifier" CORE="Perm" CONTROLLED="(ND)" DESCRIPTION="" ORIGIN="Assigned" ORDER="40" Comments="" />
        <VARIABLE NAME="QSREASND" LABEL="Reason Not Performed" TYPE="Char" LENGTH="200" ROLE="Record Qualifier" CORE="Perm" CONTROLLED="" DESCRIPTION="" ORIGIN="Assigned" ORDER="41" Comments="" />
        <VARIABLE NAME="QSBLFL" LABEL="Baseline Flag" TYPE="Char" LENGTH="1" ROLE="Record Qualifier" CORE="Exp" CONTROLLED="(NY)" DESCRIPTION="" ORIGIN="Derived" ORDER="56" Comments="Derivation of baseline: Safety subjects only: QSBLFL=Y for last non missing record on or before the first dose date (RFSTDTC)." />
        <VARIABLE NAME="QSDRVFL" LABEL="Derived Flag" TYPE="Char" LENGTH="1" ROLE="Record Qualifier" CORE="Perm" CONTROLLED="(NY)" DESCRIPTION="" ORIGIN="Assigned" ORDER="58" Comments="" />
        <VARIABLE NAME="VISITNUM" LABEL="Visit Number" TYPE="Num" LENGTH="8" ROLE="Timing" CORE="Exp" CONTROLLED="" DESCRIPTION="" ORIGIN="Assigned" ORDER="100" Comments="" />
        <VARIABLE NAME="VISIT" LABEL="Visit Name" TYPE="Char" LENGTH="200" ROLE="Timing" CORE="Perm" CONTROLLED="" DESCRIPTION="" ORIGIN="Assigned" ORDER="101" Comments="" />
        <VARIABLE NAME="VISITDY" LABEL="Planned Study Day of Visit" TYPE="Num" LENGTH="8" ROLE="Timing" CORE="Perm" CONTROLLED="" DESCRIPTION="" ORIGIN="Protocol" ORDER="102" Comments="" />
        <VARIABLE NAME="QSDTC" LABEL="Date/Time of Finding" TYPE="Char" LENGTH="20" ROLE="Timing" CORE="Exp" CONTROLLED="ISO 8601" DESCRIPTION="" ORIGIN="Assigned" ORDER="105" Comments="" />
        <VARIABLE NAME="QSDY" LABEL="Study Day of Finding" TYPE="Num" LENGTH="8" ROLE="Timing" CORE="Perm" CONTROLLED="" DESCRIPTION="" ORIGIN="Derived" ORDER="108" Comments="Relative study day between &lt;QSDTC&gt; and DM.RFSTDTC. Add 1 if the difference is greater than or equal to 0." />
        <VARIABLE NAME="QSTPT" LABEL="Planned Time Point Name" TYPE="Char" LENGTH="200" ROLE="Timing" CORE="Perm" CONTROLLED="" DESCRIPTION="" ORIGIN="Assigned" ORDER="112" Comments="" />
        <VARIABLE NAME="QSTPTNUM" LABEL="Planned Time Point Number" TYPE="Num" LENGTH="8" ROLE="Timing" CORE="Perm" CONTROLLED="" DESCRIPTION="" ORIGIN="Assigned" ORDER="113" Comments="" />
        <VARIABLE NAME="QSELTM" LABEL="Planned Elapsed Time from Time Point Ref" TYPE="Char" LENGTH="20" ROLE="Timing" CORE="Perm" CONTROLLED="ISO 8601" DESCRIPTION="" ORIGIN="Assigned" ORDER="114" Comments="" />
        <VARIABLE NAME="QSTPTREF" LABEL="Time Point Reference" TYPE="Char" LENGTH="200" ROLE="Timing" CORE="Perm" CONTROLLED="" DESCRIPTION="" ORIGIN="Assigned" ORDER="115" Comments="" />
        <VARIABLE NAME="QSRFTDTC" LABEL="Date/Time of Reference Time Point" TYPE="Char" LENGTH="20" ROLE="Timing" CORE="Perm" CONTROLLED="ISO 8601" DESCRIPTION="" ORIGIN="Assigned" ORDER="116" Comments="" />
        <VARIABLE NAME="QSEVLINT" LABEL="Evaluation Interval" TYPE="Char" LENGTH="20" ROLE="Timing" CORE="Perm" CONTROLLED="ISO 8601" DESCRIPTION="" ORIGIN="Assigned" ORDER="119" Comments="" />
      </VARIABLES>
      <KEYVARIABLES>
        <VARIABLE NAME="STUDYID" />
        <VARIABLE NAME="USUBJID" />
        <VARIABLE NAME="VISITNUM" />
        <VARIABLE NAME="VISIT" />
        <VARIABLE NAME="QSTPTNUM" />
        <VARIABLE NAME="QSTPT" />
        <VARIABLE NAME="QSDTC" />
        <VARIABLE NAME="QSCAT" />
        <VARIABLE NAME="QSTESTCD" />
      </KEYVARIABLES>
    </DOMAIN>
    <DOMAIN CODE="RS" NAME="Disease Response" STRUCTURE="One record per response assessment per visit per subject per assessor" CLASS="Findings" DESCRIPTION="">
      <VARIABLES>
        <VARIABLE NAME="STUDYID" LABEL="Study Identifier" TYPE="Char" LENGTH="20" ROLE="Identifier" CORE="Req" CONTROLLED="" DESCRIPTION="" ORIGIN="Assigned" ORDER="1" Comments="" />
        <VARIABLE NAME="DOMAIN" LABEL="Domain Abbreviation" TYPE="Char" LENGTH="2" ROLE="Identifier" CORE="Req" CONTROLLED="" DESCRIPTION="" ORIGIN="Assigned" ORDER="2" Comments="" />
        <VARIABLE NAME="USUBJID" LABEL="Unique Subject Identifier" TYPE="Char" LENGTH="25" ROLE="Identifier" CORE="Req" CONTROLLED="" DESCRIPTION="" ORIGIN="Derived" ORDER="4" Comments="Concatenate STUDYID, SITEID and SUBJID, separated by &quot;-&quot;." />
        <VARIABLE NAME="RSSEQ" LABEL="Sequence Number" TYPE="Num" LENGTH="8" ROLE="Identifier" CORE="Req" CONTROLLED="" DESCRIPTION="" ORIGIN="Derived" ORDER="8" Comments="Sort by the key variables specified in the domain list. Assign RSSEQ=1 to the first record and increment RSSEQ by 1 for each additional record so that RSSEQ is unique for each record within a USUBJID." />
        <VARIABLE NAME="RSGRPID" LABEL="Group ID" TYPE="Char" LENGTH="20" ROLE="Identifier" CORE="Perm" CONTROLLED="" DESCRIPTION="" ORIGIN="Assigned" ORDER="9" Comments="" />
        <VARIABLE NAME="RSREFID" LABEL="Reference ID" TYPE="Char" LENGTH="20" ROLE="Identifier" CORE="Perm" CONTROLLED="" DESCRIPTION="" ORIGIN="Assigned" ORDER="10" Comments="" />
        <VARIABLE NAME="RSSPID" LABEL="Sponsor-Defined Identifier" TYPE="Char" LENGTH="20" ROLE="Identifier" CORE="Perm" CONTROLLED="" DESCRIPTION="" ORIGIN="Assigned" ORDER="11" Comments="" />
        <VARIABLE NAME="RSLNKID" LABEL="Link ID" TYPE="Char" LENGTH="20" ROLE="Identifier" CORE="Perm" CONTROLLED="" DESCRIPTION="" ORIGIN="Assigned" ORDER="12" Comments="" />
        <VARIABLE NAME="RSLNKGRP" LABEL="Link Group" TYPE="Char" LENGTH="20" ROLE="Identifier" CORE="Perm" CONTROLLED="" DESCRIPTION="" ORIGIN="Assigned" ORDER="13" Comments="" />
        <VARIABLE NAME="RSTESTCD" LABEL="Response Assessment Short Name" TYPE="Char" LENGTH="8" ROLE="Topic" CORE="Req" CONTROLLED="" DESCRIPTION="" ORIGIN="Assigned" ORDER="20" Comments="" />
        <VARIABLE NAME="RSTEST" LABEL="Response Assessment Name" TYPE="Char" LENGTH="40" ROLE="Synonym Qualifier" CORE="Req" CONTROLLED="" DESCRIPTION="" ORIGIN="Assigned" ORDER="21" Comments="" />
        <VARIABLE NAME="RSCAT" LABEL="Category for Response Assessment" TYPE="Char" LENGTH="200" ROLE="Grouping Qualifier" CORE="Exp" CONTROLLED="" DESCRIPTION="" ORIGIN="Assigned" ORDER="24" Comments="" />
        <VARIABLE NAME="RSORRES" LABEL="Response Assessment Original Result" TYPE="Char" LENGTH="200" ROLE="Result Qualifier" CORE="Exp" CONTROLLED="" DESCRIPTION="" ORIGIN="Assigned" ORDER="28" Comments="" />
        <VARIABLE NAME="RSSTRESC" LABEL="Response Assessment Result in Std Format" TYPE="Char" LENGTH="200" ROLE="Record Qualifier" CORE="Exp" CONTROLLED="" DESCRIPTION="" ORIGIN="Derived" ORDER="32" Comments="If data collected in non-standard units, then data is converted using standard conversion factors to standard units; else equal to RSORRES." />
        <VARIABLE NAME="RSSTAT" LABEL="Completion Status" TYPE="Char" LENGTH="8" ROLE="Result Qualifier" CORE="Perm" CONTROLLED="(ND)" DESCRIPTION="" ORIGIN="Assigned" ORDER="40" Comments="" />
        <VARIABLE NAME="RSREASND" LABEL="Reason Response Assessment Not Performed" TYPE="Char" LENGTH="200" ROLE="Record Qualifier" CORE="Perm" CONTROLLED="" DESCRIPTION="" ORIGIN="Assigned" ORDER="41" Comments="" />
        <VARIABLE NAME="RSNAM" LABEL="Vendor Name" TYPE="Char" LENGTH="200" ROLE="Record Qualifier" CORE="Perm" CONTROLLED="" DESCRIPTION="" ORIGIN="Assigned" ORDER="43" Comments="" />
        <VARIABLE NAME="RSEVAL" LABEL="Evaluator" TYPE="Char" LENGTH="20" ROLE="Record Qualifier" CORE="Exp" CONTROLLED="(EVAL)" DESCRIPTION="" ORIGIN="Assigned" ORDER="59" Comments="" />
        <VARIABLE NAME="RSEVALID" LABEL="Evaluator Identifier" TYPE="Char" LENGTH="20" ROLE="Variable Qualifier" CORE="Perm" CONTROLLED="(MEDEVAL)" DESCRIPTION="" ORIGIN="Assigned" ORDER="60" Comments="" />
        <VARIABLE NAME="RSACPTFL" LABEL="Accepted Record Flag" TYPE="Char" LENGTH="1" ROLE="Record Qualifier" CORE="Perm" CONTROLLED="(NY)" DESCRIPTION="" ORIGIN="Assigned" ORDER="61" Comments="" />
        <VARIABLE NAME="VISITNUM" LABEL="Visit Number" TYPE="Num" LENGTH="8" ROLE="Timing" CORE="Exp" CONTROLLED="" DESCRIPTION="" ORIGIN="Assigned" ORDER="100" Comments="" />
        <VARIABLE NAME="VISIT" LABEL="Visit Name" TYPE="Char" LENGTH="200" ROLE="Timing" CORE="Perm" CONTROLLED="" DESCRIPTION="" ORIGIN="Assigned" ORDER="101" Comments="" />
        <VARIABLE NAME="VISITDY" LABEL="Planned Study Day of Visit" TYPE="Num" LENGTH="8" ROLE="Timing" CORE="Perm" CONTROLLED="" DESCRIPTION="" ORIGIN="Protocol" ORDER="102" Comments="" />
        <VARIABLE NAME="EPOCH" LABEL="Epoch" TYPE="Char" LENGTH="50" ROLE="Timing" CORE="Perm" CONTROLLED="" DESCRIPTION="" ORIGIN="Derived" ORDER="104" Comments="'SCREENING' if RSDTC before RFSTDTC; 'TREATMENT' if RSDTC is between RFSTDTC and RFENDTC; 'FOLLOW-UP' if RSDTC is after RFENDTC." />
        <VARIABLE NAME="RSDTC" LABEL="Date/Time of Response Assessment" TYPE="Char" LENGTH="20" ROLE="Timing" CORE="Exp" CONTROLLED="ISO 8601" DESCRIPTION="" ORIGIN="Assigned" ORDER="105" Comments="" />
        <VARIABLE NAME="RSDY" LABEL="Study Day of Response Assessment" TYPE="Num" LENGTH="8" ROLE="Timing" CORE="Perm" CONTROLLED="" DESCRIPTION="" ORIGIN="Derived" ORDER="108" Comments="Relative study day between &lt;RSDTC&gt; and DM.RFSTDTC. Add 1 if the difference is greater than or equal to 0." />
      </VARIABLES>
      <KEYVARIABLES>
        <VARIABLE NAME="STUDYID" />
        <VARIABLE NAME="USUBJID" />
        <VARIABLE NAME="VISITNUM" />
        <VARIABLE NAME="VISIT" />
        <VARIABLE NAME="RSDTC" />
        <VARIABLE NAME="RSCAT" />
        <VARIABLE NAME="RSTESTCD" />
      </KEYVARIABLES>
    </DOMAIN>
    <DOMAIN CODE="SC" NAME="Subject Characteristics" STRUCTURE="One record per characteristic per subject" CLASS="Findings" DESCRIPTION="">
      <VARIABLES>
        <VARIABLE NAME="STUDYID" LABEL="Study Identifier" TYPE="Char" LENGTH="20" ROLE="Identifier" CORE="Req" CONTROLLED="" DESCRIPTION="" ORIGIN="Assigned" ORDER="1" Comments="" />
        <VARIABLE NAME="DOMAIN" LABEL="Domain Abbreviation" TYPE="Char" LENGTH="2" ROLE="Identifier" CORE="Req" CONTROLLED="" DESCRIPTION="" ORIGIN="Assigned" ORDER="2" Comments="" />
        <VARIABLE NAME="USUBJID" LABEL="Unique Subject Identifier" TYPE="Char" LENGTH="25" ROLE="Identifier" CORE="Req" CONTROLLED="" DESCRIPTION="" ORIGIN="Derived" ORDER="4" Comments="Concatenate STUDYID, SITEID and SUBJID, separated by &quot;-&quot;." />
        <VARIABLE NAME="SCSEQ" LABEL="Sequence Number" TYPE="Num" LENGTH="8" ROLE="Identifier" CORE="Req" CONTROLLED="" DESCRIPTION="" ORIGIN="Derived" ORDER="8" Comments="Sort by the key variables specified in the domain list. Assign SCSEQ=1 to the first record and increment SCSEQ by 1 for each additional record so that SCSEQ is unique for each record within a USUBJID." />
        <VARIABLE NAME="SCGRPID" LABEL="Group ID" TYPE="Char" LENGTH="20" ROLE="Identifier" CORE="Perm" CONTROLLED="" DESCRIPTION="" ORIGIN="Assigned" ORDER="9" Comments="" />
        <VARIABLE NAME="SCSPID" LABEL="Sponsor-Defined Identifier" TYPE="Char" LENGTH="20" ROLE="Identifier" CORE="Perm" CONTROLLED="" DESCRIPTION="" ORIGIN="Assigned" ORDER="11" Comments="" />
        <VARIABLE NAME="SCTESTCD" LABEL="Subject Characteristic Short Name" TYPE="Char" LENGTH="8" ROLE="Topic" CORE="Req" CONTROLLED="(SCCD)" DESCRIPTION="" ORIGIN="Assigned" ORDER="20" Comments="" />
        <VARIABLE NAME="SCTEST" LABEL="Subject Characteristic" TYPE="Char" LENGTH="40" ROLE="Synonym Qualifier" CORE="Req" CONTROLLED="" DESCRIPTION="" ORIGIN="Assigned" ORDER="21" Comments="" />
        <VARIABLE NAME="SCCAT" LABEL="Category for Subject Characteristic" TYPE="Char" LENGTH="200" ROLE="Grouping Qualifier" CORE="Perm" CONTROLLED="" DESCRIPTION="" ORIGIN="Assigned" ORDER="24" Comments="" />
        <VARIABLE NAME="SCSCAT" LABEL="Subcategory for Subject Characteristic" TYPE="Char" LENGTH="200" ROLE="Grouping Qualifier" CORE="Perm" CONTROLLED="" DESCRIPTION="" ORIGIN="Assigned" ORDER="25" Comments="" />
        <VARIABLE NAME="SCORRES" LABEL="Result or Finding in Original Units" TYPE="Char" LENGTH="200" ROLE="Result Qualifier" CORE="Exp" CONTROLLED="" DESCRIPTION="" ORIGIN="Assigned" ORDER="28" Comments="" />
        <VARIABLE NAME="SCORRESU" LABEL="Original Units" TYPE="Char" LENGTH="20" ROLE="Variable Qualifier" CORE="Perm" CONTROLLED="(UNIT)" DESCRIPTION="" ORIGIN="Assigned" ORDER="29" Comments="" />
        <VARIABLE NAME="SCSTRESC" LABEL="Character Result/Finding in Std Format" TYPE="Char" LENGTH="200" ROLE="Result Qualifier" CORE="Exp" CONTROLLED="" DESCRIPTION="" ORIGIN="Derived" ORDER="32" Comments="If data collected in non-standard units, then data is converted using standard conversion factors to standard units; else equal to SCORRES." />
        <VARIABLE NAME="SCSTRESN" LABEL="Numeric Result/Finding in Standard Units" TYPE="Num" LENGTH="8" ROLE="Result Qualifier" CORE="Perm" CONTROLLED="" DESCRIPTION="" ORIGIN="Derived" ORDER="33" Comments="Equal to numeric value of SCSTRESC" />
        <VARIABLE NAME="SCSTRESU" LABEL="Standard Units" TYPE="Char" LENGTH="20" ROLE="Variable Qualifier" CORE="Perm" CONTROLLED="(UNIT)" DESCRIPTION="" ORIGIN="Assigned" ORDER="34" Comments="" />
        <VARIABLE NAME="SCSTAT" LABEL="Completion Status" TYPE="Char" LENGTH="8" ROLE="Record Qualifier" CORE="Perm" CONTROLLED="(ND)" DESCRIPTION="" ORIGIN="Assigned" ORDER="40" Comments="" />
        <VARIABLE NAME="SCREASND" LABEL="Reason Not Performed" TYPE="Char" LENGTH="200" ROLE="Record Qualifier" CORE="Perm" CONTROLLED="" DESCRIPTION="" ORIGIN="Assigned" ORDER="41" Comments="" />
        <VARIABLE NAME="SCDTC" LABEL="Date/Time of Collection" TYPE="Char" LENGTH="20" ROLE="Timing" CORE="Perm" CONTROLLED="ISO 8601" DESCRIPTION="" ORIGIN="Assigned" ORDER="105" Comments="" />
