{
  "DOMAINLIST": {
    "DOMAIN": [
      {
        "VARIABLES": {
          "children": [
            {
              "_NAME": "STUDYID",
              "_LABEL": "Study Identifier",
              "_TYPE": "Char",
              "_LENGTH": "20",
              "_ROLE": "Identifier",
              "_CORE": "Req",
              "_CONTROLLED": "",
              "_DESCRIPTION": "",
              "_ORIGIN": "Assigned",
              "_ORDER": "1",
              "_Comments": ""
            },
            {
              "_NAME": "DOMAIN",
              "_LABEL": "Domain Abbreviation",
              "_TYPE": "Char",
              "_LENGTH": "2",
              "_ROLE": "Identifier",
              "_CORE": "Req",
              "_CONTROLLED": "",
              "_DESCRIPTION": "",
              "_ORIGIN": "Assigned",
              "_ORDER": "2",
              "_Comments": ""
            },
            {
              "_NAME": "USUBJID",
              "_LABEL": "Unique Subject Identifier",
              "_TYPE": "Char",
              "_LENGTH": "25",
              "_ROLE": "Identifier",
              "_CORE": "Req",
              "_CONTROLLED": "",
              "_DESCRIPTION": "",
              "_ORIGIN": "Derived",
              "_ORDER": "4",
              "_Comments": "Concatenate STUDYID, SITEID and SUBJID, separated by \"-\"."
            },
            {
              "_NAME": "SUBJID",
              "_LABEL": "Subject Identifier for the Study",
              "_TYPE": "Char",
              "_LENGTH": "20",
              "_ROLE": "Topic",
              "_CORE": "Req",
              "_CONTROLLED": "",
              "_DESCRIPTION": "",
              "_ORIGIN": "Assigned",
              "_ORDER": "20",
              "_Comments": ""
            },
            {
              "_NAME": "RFSTDTC",
              "_LABEL": "Subject Reference Start Date/Time",
              "_TYPE": "Char",
              "_LENGTH": "20",
              "_ROLE": "Record Qualifier",
              "_CORE": "Exp",
              "_CONTROLLED": "ISO 8601",
              "_DESCRIPTION": "",
              "_ORIGIN": "Derived",
              "_ORDER": "21",
              "_Comments": "For safety subjects equal to first date/time of study drug. Null for subjects who did not take study drug."
            },
            {
              "_NAME": "RFENDTC",
              "_LABEL": "Subject Reference End Date/Time",
              "_TYPE": "Char",
              "_LENGTH": "20",
              "_ROLE": "Record Qualifier",
              "_CORE": "Exp",
              "_CONTROLLED": "ISO 8601",
              "_DESCRIPTION": "",
              "_ORIGIN": "Derived",
              "_ORDER": "22",
              "_Comments": "For safety subjects equal to last date/time of study drug. Null for subjects who did not take study drug."
            },
            {
              "_NAME": "RFXSTDTC",
              "_LABEL": "Date/Time of First Study Treatment",
              "_TYPE": "Char",
              "_LENGTH": "20",
              "_ROLE": "Record Qualifier",
              "_CORE": "Exp",
              "_CONTROLLED": "ISO 8601",
              "_DESCRIPTION": "",
              "_ORIGIN": "Derived",
              "_ORDER": "23",
              "_Comments": "Equal to first date/time of study drug. Null for subjects who did not take study drug."
            },
            {
              "_NAME": "RFXENDTC",
              "_LABEL": "Date/Time of Last Study Treatment",
              "_TYPE": "Char",
              "_LENGTH": "20",
              "_ROLE": "Record Qualifier",
              "_CORE": "Exp",
              "_CONTROLLED": "ISO 8601",
              "_DESCRIPTION": "",
              "_ORIGIN": "Derived",
              "_ORDER": "24",
              "_Comments": "Equal to last date/time of study drug. Null for subjects who did not take study drug."
            },
            {
              "_NAME": "RFICDTC",
              "_LABEL": "Date/Time of Informed Consent",
              "_TYPE": "Char",
              "_LENGTH": "20",
              "_ROLE": "Record Qualifier",
              "_CORE": "Exp",
              "_CONTROLLED": "ISO 8601",
              "_DESCRIPTION": "",
              "_ORIGIN": "Assigned",
              "_ORDER": "25",
              "_Comments": ""
            },
            {
              "_NAME": "RFPENDTC",
              "_LABEL": "Date/Time of End of Participation",
              "_TYPE": "Char",
              "_LENGTH": "20",
              "_ROLE": "Record Qualifier",
              "_CORE": "Exp",
              "_CONTROLLED": "ISO 8601",
              "_DESCRIPTION": "",
              "_ORIGIN": "Derived",
              "_ORDER": "26",
              "_Comments": "Last known date of contact"
            },
            {
              "_NAME": "DTHDTC",
              "_LABEL": "Date/Time of Death",
              "_TYPE": "Char",
              "_LENGTH": "20",
              "_ROLE": "Record Qualifier",
              "_CORE": "Exp",
              "_CONTROLLED": "ISO 8601",
              "_DESCRIPTION": "",
              "_ORIGIN": "Assigned",
              "_ORDER": "27",
              "_Comments": ""
            },
            {
              "_NAME": "DTHFL",
              "_LABEL": "Subject Death Flag",
              "_TYPE": "Char",
              "_LENGTH": "1",
              "_ROLE": "Record Qualifier",
              "_CORE": "Exp",
              "_CONTROLLED": "(NY)",
              "_DESCRIPTION": "",
              "_ORIGIN": "Assigned",
              "_ORDER": "28",
              "_Comments": ""
            },
            {
              "_NAME": "SITEID",
              "_LABEL": "Study Site Identifier",
              "_TYPE": "Char",
              "_LENGTH": "10",
              "_ROLE": "Record Qualifier",
              "_CORE": "Req",
              "_CONTROLLED": "",
              "_DESCRIPTION": "",
              "_ORIGIN": "Assigned",
              "_ORDER": "29",
              "_Comments": ""
            },
            {
              "_NAME": "INVID",
              "_LABEL": "Investigator Identifier",
              "_TYPE": "Char",
              "_LENGTH": "50",
              "_ROLE": "Record Qualifier",
              "_CORE": "Perm",
              "_CONTROLLED": "",
              "_DESCRIPTION": "",
              "_ORIGIN": "Assigned",
              "_ORDER": "30",
              "_Comments": ""
            },
            {
              "_NAME": "INVNAM",
              "_LABEL": "Investigator Name",
              "_TYPE": "Char",
              "_LENGTH": "200",
              "_ROLE": "Synonym Qualifier",
              "_CORE": "Perm",
              "_CONTROLLED": "",
              "_DESCRIPTION": "",
              "_ORIGIN": "Assigned",
              "_ORDER": "31",
              "_Comments": ""
            },
            {
              "_NAME": "BRTHDTC",
              "_LABEL": "Date/Time of Birth",
              "_TYPE": "Char",
              "_LENGTH": "20",
              "_ROLE": "Record Qualifier",
              "_CORE": "Perm",
              "_CONTROLLED": "ISO 8601",
              "_DESCRIPTION": "",
              "_ORIGIN": "Assigned",
              "_ORDER": "32",
              "_Comments": ""
            },
            {
              "_NAME": "AGE",
              "_LABEL": "Age",
              "_TYPE": "Num",
              "_LENGTH": "8",
              "_ROLE": "Record Qualifier",
              "_CORE": "Exp",
              "_CONTROLLED": "",
              "_DESCRIPTION": "",
              "_ORIGIN": "Derived",
              "_ORDER": "33",
              "_Comments": "Derived from DM.BRTHDTC and DM.RFICDTC."
            },
            {
              "_NAME": "AGEU",
              "_LABEL": "Age Units",
              "_TYPE": "Char",
              "_LENGTH": "10",
              "_ROLE": "Variable Qualifier",
              "_CORE": "Exp",
              "_CONTROLLED": "(AGEU)",
              "_DESCRIPTION": "",
              "_ORIGIN": "Assigned",
              "_ORDER": "34",
              "_Comments": ""
            },
            {
              "_NAME": "SEX",
              "_LABEL": "Sex",
              "_TYPE": "Char",
              "_LENGTH": "2",
              "_ROLE": "Record Qualifier",
              "_CORE": "Req",
              "_CONTROLLED": "(SEX)",
              "_DESCRIPTION": "",
              "_ORIGIN": "Assigned",
              "_ORDER": "35",
              "_Comments": ""
            },
            {
              "_NAME": "RACE",
              "_LABEL": "Race",
              "_TYPE": "Char",
              "_LENGTH": "41",
              "_ROLE": "Record Qualifier",
              "_CORE": "Exp",
              "_CONTROLLED": "(RACE)",
              "_DESCRIPTION": "",
              "_ORIGIN": "Assigned",
              "_ORDER": "36",
              "_Comments": ""
            },
            {
              "_NAME": "ETHNIC",
              "_LABEL": "Ethnicity",
              "_TYPE": "Char",
              "_LENGTH": "50",
              "_ROLE": "Record Qualifier",
              "_CORE": "Perm",
              "_CONTROLLED": "(ETHNIC)",
              "_DESCRIPTION": "",
              "_ORIGIN": "Assigned",
              "_ORDER": "37",
              "_Comments": ""
            },
            {
              "_NAME": "ARMCD",
              "_LABEL": "Planned Arm Code",
              "_TYPE": "Char",
              "_LENGTH": "20",
              "_ROLE": "Record Qualifier",
              "_CORE": "Req",
              "_CONTROLLED": "",
              "_DESCRIPTION": "",
              "_ORIGIN": "Derived",
              "_ORDER": "38",
              "_Comments": "Derived from arm code in TRIAL ARM (TA) based on Randomization Number."
            },
            {
              "_NAME": "ARM",
              "_LABEL": "Description of Planned Arm",
              "_TYPE": "Char",
              "_LENGTH": "200",
              "_ROLE": "Synonym Qualifier",
              "_CORE": "Req",
              "_CONTROLLED": "",
              "_DESCRIPTION": "",
              "_ORIGIN": "Derived",
              "_ORDER": "39",
              "_Comments": "Derived from description of arm in TRIAL ARM (TA) based on Randomization Number."
            },
            {
              "_NAME": "ACTARMCD",
              "_LABEL": "Actual Arm Code",
              "_TYPE": "Char",
              "_LENGTH": "20",
              "_ROLE": "Record Qualifier",
              "_CORE": "Req",
              "_CONTROLLED": "",
              "_DESCRIPTION": "",
              "_ORIGIN": "Derived",
              "_ORDER": "40",
              "_Comments": "Derived from arm code in Trial Arm (TA) based on Actual Assignment."
            },
            {
              "_NAME": "ACTARM",
              "_LABEL": "Description of Actual Arm",
              "_TYPE": "Char",
              "_LENGTH": "200",
              "_ROLE": "Synonym Qualifier",
              "_CORE": "Req",
              "_CONTROLLED": "",
              "_DESCRIPTION": "",
              "_ORIGIN": "Derived",
              "_ORDER": "41",
              "_Comments": "Derived from description of arm in TRIAL ARM (TA) based on Actual Assignment."
            },
            {
              "_NAME": "COUNTRY",
              "_LABEL": "Country",
              "_TYPE": "Char",
              "_LENGTH": "3",
              "_ROLE": "Record Qualifier",
              "_CORE": "Req",
              "_CONTROLLED": "(COUNTRY) ISO 3166",
              "_DESCRIPTION": "",
              "_ORIGIN": "Assigned",
              "_ORDER": "42",
              "_Comments": ""
            },
            {
              "_NAME": "DMDTC",
              "_LABEL": "Date/Time of Collection",
              "_TYPE": "Char",
              "_LENGTH": "20",
              "_ROLE": "Timing",
              "_CORE": "Perm",
              "_CONTROLLED": "ISO 8601",
              "_DESCRIPTION": "",
              "_ORIGIN": "Assigned",
              "_ORDER": "105",
              "_Comments": ""
            },
            {
              "_NAME": "DMDY",
              "_LABEL": "Study Day of Collection",
              "_TYPE": "Num",
              "_LENGTH": "8",
              "_ROLE": "Timing",
              "_CORE": "Perm",
              "_CONTROLLED": "",
              "_DESCRIPTION": "",
              "_ORIGIN": "Derived",
              "_ORDER": "108",
              "_Comments": "Relative study day between <DMDTC> and DM.RFSTDTC. Add 1 if the difference is greater than or equal to 0."
            }
          ]
        },
        "KEYVARIABLES": {
          "children": [
            {
              "_NAME": "STUDYID"
            },
            {
              "_NAME": "USUBJID"
            }
          ]
        },
        "_CODE": "DM",
        "_NAME": "Demographics",
        "_STRUCTURE": "One record per subject",
        "_CLASS": "Special Purpose Domains",
        "_DESCRIPTION": ""
      },
      {
        "VARIABLES": {
          "children": [
            {
              "_NAME": "STUDYID",
              "_LABEL": "Study Identifier",
              "_TYPE": "Char",
              "_LENGTH": "20",
              "_ROLE": "Identifier",
              "_CORE": "Req",
              "_CONTROLLED": "",
              "_DESCRIPTION": "",
              "_ORIGIN": "Assigned",
              "_ORDER": "1",
              "_Comments": ""
            },
            {
              "_NAME": "DOMAIN",
              "_LABEL": "Domain Abbreviation",
              "_TYPE": "Char",
              "_LENGTH": "2",
              "_ROLE": "Identifier",
              "_CORE": "Req",
              "_CONTROLLED": "",
              "_DESCRIPTION": "",
              "_ORIGIN": "Assigned",
              "_ORDER": "2",
              "_Comments": ""
            },
            {
              "_NAME": "RDOMAIN",
              "_LABEL": "Related Domain Abbreviation",
              "_TYPE": "Char",
              "_LENGTH": "2",
              "_ROLE": "Record Qualifier",
              "_CORE": "Perm",
              "_CONTROLLED": "",
              "_DESCRIPTION": "",
              "_ORIGIN": "Assigned",
              "_ORDER": "3",
              "_Comments": ""
            },
            {
              "_NAME": "USUBJID",
              "_LABEL": "Unique Subject Identifier",
              "_TYPE": "Char",
              "_LENGTH": "25",
              "_ROLE": "Identifier",
              "_CORE": "Req",
              "_CONTROLLED": "",
              "_DESCRIPTION": "",
              "_ORIGIN": "Derived",
              "_ORDER": "4",
              "_Comments": "Concatenate STUDYID, SITEID and SUBJID, separated by \"-\"."
            },
            {
              "_NAME": "COSEQ",
              "_LABEL": "Sequence Number",
              "_TYPE": "Num",
              "_LENGTH": "8",
              "_ROLE": "Identifier",
              "_CORE": "Req",
              "_CONTROLLED": "",
              "_DESCRIPTION": "",
              "_ORIGIN": "Derived",
              "_ORDER": "8",
              "_Comments": "Sort by the key variables specified in the domain list. Assign COSEQ=1 to the first record and increment COSEQ by 1 for each additional record so that COSEQ is unique for each record within a USUBJID."
            },
            {
              "_NAME": "IDVAR",
              "_LABEL": "Identifying Variable",
              "_TYPE": "Char",
              "_LENGTH": "8",
              "_ROLE": "Record Qualifier",
              "_CORE": "Perm",
              "_CONTROLLED": "",
              "_DESCRIPTION": "",
              "_ORIGIN": "Assigned",
              "_ORDER": "24",
              "_Comments": ""
            },
            {
              "_NAME": "IDVARVAL",
              "_LABEL": "Identifying Variable Value",
              "_TYPE": "Char",
              "_LENGTH": "50",
              "_ROLE": "Record Qualifier",
              "_CORE": "Perm",
              "_CONTROLLED": "",
              "_DESCRIPTION": "",
              "_ORIGIN": "Assigned",
              "_ORDER": "25",
              "_Comments": ""
            },
            {
              "_NAME": "COREF",
              "_LABEL": "Comment Reference",
              "_TYPE": "Char",
              "_LENGTH": "200",
              "_ROLE": "Record Qualifier",
              "_CORE": "Perm",
              "_CONTROLLED": "",
              "_DESCRIPTION": "",
              "_ORIGIN": "Assigned",
              "_ORDER": "20",
              "_Comments": ""
            },
            {
              "_NAME": "COVAL",
              "_LABEL": "Comment",
              "_TYPE": "Char",
              "_LENGTH": "200",
              "_ROLE": "Topic",
              "_CORE": "Req",
              "_CONTROLLED": "",
              "_DESCRIPTION": "",
              "_ORIGIN": "Assigned",
              "_ORDER": "21",
              "_Comments": ""
            },
            {
              "_NAME": "COVAL1",
              "_LABEL": "Comment",
              "_TYPE": "Char",
              "_LENGTH": "200",
              "_ROLE": "Topic",
              "_CORE": "Perm",
              "_CONTROLLED": "",
              "_DESCRIPTION": "",
              "_ORIGIN": "Assigned",
              "_ORDER": "22",
              "_Comments": ""
            },
            {
              "_NAME": "COVAL2",
              "_LABEL": "Comment",
              "_TYPE": "Char",
              "_LENGTH": "200",
              "_ROLE": "Topic",
              "_CORE": "Perm",
              "_CONTROLLED": "",
              "_DESCRIPTION": "",
              "_ORIGIN": "Assigned",
              "_ORDER": "23",
              "_Comments": ""
            },
            {
              "_NAME": "COVAL3",
              "_LABEL": "Comment",
              "_TYPE": "Char",
              "_LENGTH": "200",
              "_ROLE": "Topic",
              "_CORE": "Perm",
              "_CONTROLLED": "",
              "_DESCRIPTION": "",
              "_ORIGIN": "Assigned",
              "_ORDER": "24",
              "_Comments": ""
            },
            {
              "_NAME": "COVAL4",
              "_LABEL": "Comment",
              "_TYPE": "Char",
              "_LENGTH": "200",
              "_ROLE": "Topic",
              "_CORE": "Perm",
              "_CONTROLLED": "",
              "_DESCRIPTION": "",
              "_ORIGIN": "Assigned",
              "_ORDER": "25",
              "_Comments": ""
            },
            {
              "_NAME": "COVAL5",
              "_LABEL": "Comment",
              "_TYPE": "Char",
              "_LENGTH": "200",
              "_ROLE": "Topic",
              "_CORE": "Perm",
              "_CONTROLLED": "",
              "_DESCRIPTION": "",
              "_ORIGIN": "Assigned",
              "_ORDER": "26",
              "_Comments": ""
            },
            {
              "_NAME": "COVAL6",
              "_LABEL": "Comment",
              "_TYPE": "Char",
              "_LENGTH": "200",
              "_ROLE": "Topic",
              "_CORE": "Perm",
              "_CONTROLLED": "",
              "_DESCRIPTION": "",
              "_ORIGIN": "Assigned",
              "_ORDER": "27",
              "_Comments": ""
            },
            {
              "_NAME": "COVAL7",
              "_LABEL": "Comment",
              "_TYPE": "Char",
              "_LENGTH": "200",
              "_ROLE": "Topic",
              "_CORE": "Perm",
              "_CONTROLLED": "",
              "_DESCRIPTION": "",
              "_ORIGIN": "Assigned",
              "_ORDER": "28",
              "_Comments": ""
            },
            {
              "_NAME": "COVAL8",
              "_LABEL": "Comment",
              "_TYPE": "Char",
              "_LENGTH": "200",
              "_ROLE": "Topic",
              "_CORE": "Perm",
              "_CONTROLLED": "",
              "_DESCRIPTION": "",
              "_ORIGIN": "Assigned",
              "_ORDER": "29",
              "_Comments": ""
            },
            {
              "_NAME": "COVAL9",
              "_LABEL": "Comment",
              "_TYPE": "Char",
              "_LENGTH": "200",
              "_ROLE": "Topic",
              "_CORE": "Perm",
              "_CONTROLLED": "",
              "_DESCRIPTION": "",
              "_ORIGIN": "Assigned",
              "_ORDER": "30",
              "_Comments": ""
            },
            {
              "_NAME": "COVAL10",
              "_LABEL": "Comment",
              "_TYPE": "Char",
              "_LENGTH": "200",
              "_ROLE": "Topic",
              "_CORE": "Perm",
              "_CONTROLLED": "",
              "_DESCRIPTION": "",
              "_ORIGIN": "Assigned",
              "_ORDER": "31",
              "_Comments": ""
            },
            {
              "_NAME": "COVAL11",
              "_LABEL": "Comment",
              "_TYPE": "Char",
              "_LENGTH": "200",
              "_ROLE": "Topic",
              "_CORE": "Perm",
              "_CONTROLLED": "",
              "_DESCRIPTION": "",
              "_ORIGIN": "Assigned",
              "_ORDER": "32",
              "_Comments": ""
            },
            {
              "_NAME": "COVAL12",
              "_LABEL": "Comment",
              "_TYPE": "Char",
              "_LENGTH": "200",
              "_ROLE": "Topic",
              "_CORE": "Perm",
              "_CONTROLLED": "",
              "_DESCRIPTION": "",
              "_ORIGIN": "Assigned",
              "_ORDER": "33",
              "_Comments": ""
            },
            {
              "_NAME": "COVAL13",
              "_LABEL": "Comment",
              "_TYPE": "Char",
              "_LENGTH": "200",
              "_ROLE": "Topic",
              "_CORE": "Perm",
              "_CONTROLLED": "",
              "_DESCRIPTION": "",
              "_ORIGIN": "Assigned",
              "_ORDER": "34",
              "_Comments": ""
            },
            {
              "_NAME": "COVAL14",
              "_LABEL": "Comment",
              "_TYPE": "Char",
              "_LENGTH": "200",
              "_ROLE": "Topic",
              "_CORE": "Perm",
              "_CONTROLLED": "",
              "_DESCRIPTION": "",
              "_ORIGIN": "Assigned",
              "_ORDER": "35",
              "_Comments": ""
            },
            {
              "_NAME": "COVAL15",
              "_LABEL": "Comment",
              "_TYPE": "Char",
              "_LENGTH": "200",
              "_ROLE": "Topic",
              "_CORE": "Perm",
              "_CONTROLLED": "",
              "_DESCRIPTION": "",
              "_ORIGIN": "Assigned",
              "_ORDER": "36",
              "_Comments": ""
            },
            {
              "_NAME": "COVAL16",
              "_LABEL": "Comment",
              "_TYPE": "Char",
              "_LENGTH": "200",
              "_ROLE": "Topic",
              "_CORE": "Perm",
              "_CONTROLLED": "",
              "_DESCRIPTION": "",
              "_ORIGIN": "Assigned",
              "_ORDER": "37",
              "_Comments": ""
            },
            {
              "_NAME": "COVAL17",
              "_LABEL": "Comment",
              "_TYPE": "Char",
              "_LENGTH": "200",
              "_ROLE": "Topic",
              "_CORE": "Perm",
              "_CONTROLLED": "",
              "_DESCRIPTION": "",
              "_ORIGIN": "Assigned",
              "_ORDER": "38",
              "_Comments": ""
            },
            {
              "_NAME": "COVAL18",
              "_LABEL": "Comment",
              "_TYPE": "Char",
              "_LENGTH": "200",
              "_ROLE": "Topic",
              "_CORE": "Perm",
              "_CONTROLLED": "",
              "_DESCRIPTION": "",
              "_ORIGIN": "Assigned",
              "_ORDER": "39",
              "_Comments": ""
            },
            {
              "_NAME": "COVAL19",
              "_LABEL": "Comment",
              "_TYPE": "Char",
              "_LENGTH": "200",
              "_ROLE": "Topic",
              "_CORE": "Perm",
              "_CONTROLLED": "",
              "_DESCRIPTION": "",
              "_ORIGIN": "Assigned",
              "_ORDER": "40",
              "_Comments": ""
            },
            {
              "_NAME": "COVAL20",
              "_LABEL": "Comment",
              "_TYPE": "Char",
              "_LENGTH": "200",
              "_ROLE": "Topic",
              "_CORE": "Perm",
              "_CONTROLLED": "",
              "_DESCRIPTION": "",
              "_ORIGIN": "Assigned",
              "_ORDER": "41",
              "_Comments": ""
            },
            {
              "_NAME": "COEVAL",
              "_LABEL": "Evaluator",
              "_TYPE": "Char",
              "_LENGTH": "20",
              "_ROLE": "Record Qualifier",
              "_CORE": "Perm",
              "_CONTROLLED": "",
              "_DESCRIPTION": "",
              "_ORIGIN": "Assigned",
              "_ORDER": "42",
              "_Comments": ""
            },
            {
              "_NAME": "CODTC",
              "_LABEL": "Date/Time of Comment",
              "_TYPE": "Char",
              "_LENGTH": "20",
              "_ROLE": "Timing",
              "_CORE": "Perm",
              "_CONTROLLED": "ISO 8601",
              "_DESCRIPTION": "",
              "_ORIGIN": "Assigned",
              "_ORDER": "105",
              "_Comments": ""
            },
            {
              "_NAME": "CODY",
              "_LABEL": "Study Day of Visit/Collection/Exam",
              "_TYPE": "Num",
              "_LENGTH": "8",
              "_ROLE": "Timing",
              "_CORE": "Perm",
              "_CONTROLLED": "",
              "_DESCRIPTION": "",
              "_ORIGIN": "Derived",
              "_ORDER": "108",
              "_Comments": "Relative study day between <CODTC> and DM.RFSTDTC. Add 1 if the difference is greater than or equal to 0."
            }
          ]
        },
        "KEYVARIABLES": {
          "children": [
            {
              "_NAME": "STUDYID"
            },
            {
              "_NAME": "USUBJID"
            },
            {
              "_NAME": "RDOMAIN"
            },
            {
              "_NAME": "IDVAR"
            },
            {
              "_NAME": "IDVARVAL"
            },
            {
              "_NAME": "COREF"
            },
            {
              "_NAME": "CODTC"
            }
          ]
        },
        "_CODE": "CO",
        "_NAME": "Comments",
        "_STRUCTURE": "One record per comment per subject",
        "_CLASS": "Special Purpose Domains",
        "_DESCRIPTION": ""
      },
      {
        "VARIABLES": {
          "children": [
            {
              "_NAME": "STUDYID",
              "_LABEL": "Study Identifier",
              "_TYPE": "Char",
              "_LENGTH": "20",
              "_ROLE": "Identifier",
              "_CORE": "Req",
              "_CONTROLLED": "",
              "_DESCRIPTION": "",
              "_ORIGIN": "Assigned",
              "_ORDER": "1",
              "_Comments": ""
            },
            {
              "_NAME": "DOMAIN",
              "_LABEL": "Domain Abbreviation",
              "_TYPE": "Char",
              "_LENGTH": "2",
              "_ROLE": "Identifier",
              "_CORE": "Req",
              "_CONTROLLED": "",
              "_DESCRIPTION": "",
              "_ORIGIN": "Assigned",
              "_ORDER": "2",
              "_Comments": ""
            },
            {
              "_NAME": "USUBJID",
              "_LABEL": "Unique Subject Identifier",
              "_TYPE": "Char",
              "_LENGTH": "25",
              "_ROLE": "Identifier",
              "_CORE": "Req",
              "_CONTROLLED": "",
              "_DESCRIPTION": "",
              "_ORIGIN": "Derived",
              "_ORDER": "4",
              "_Comments": "Concatenate STUDYID, SITEID and SUBJID, separated by \"-\"."
            },
            {
              "_NAME": "SESEQ",
              "_LABEL": "Sequence Number",
              "_TYPE": "Num",
              "_LENGTH": "8",
              "_ROLE": "Identifier",
              "_CORE": "Req",
              "_CONTROLLED": "",
              "_DESCRIPTION": "",
              "_ORIGIN": "Derived",
              "_ORDER": "8",
              "_Comments": "Sort by the key variables specified in the domain list. Assign SESEQ=1 to the first record and increment SESEQ by 1 for each additional record so that SESEQ is unique for each record within a USUBJID."
            },
            {
              "_NAME": "ETCD",
              "_LABEL": "Element Code",
              "_TYPE": "Char",
              "_LENGTH": "8",
              "_ROLE": "Topic",
              "_CORE": "Req",
              "_CONTROLLED": "",
              "_DESCRIPTION": "",
              "_ORIGIN": "Assigned",
              "_ORDER": "22",
              "_Comments": ""
            },
            {
              "_NAME": "ELEMENT",
              "_LABEL": "Description of Element",
              "_TYPE": "Char",
              "_LENGTH": "200",
              "_ROLE": "Synonym Qualifier",
              "_CORE": "Perm",
              "_CONTROLLED": "",
              "_DESCRIPTION": "",
              "_ORIGIN": "Assigned",
              "_ORDER": "23",
              "_Comments": ""
            },
            {
              "_NAME": "SESTDTC",
              "_LABEL": "Start Date/Time of Element",
              "_TYPE": "Char",
              "_LENGTH": "20",
              "_ROLE": "Timing",
              "_CORE": "Req",
              "_CONTROLLED": "ISO 8601",
              "_DESCRIPTION": "",
              "_ORIGIN": "Assigned",
              "_ORDER": "106",
              "_Comments": ""
            },
            {
              "_NAME": "SEENDTC",
              "_LABEL": "End Date/Time of Element",
              "_TYPE": "Char",
              "_LENGTH": "20",
              "_ROLE": "Timing",
              "_CORE": "Exp",
              "_CONTROLLED": "ISO 8601",
              "_DESCRIPTION": "",
              "_ORIGIN": "Assigned",
              "_ORDER": "107",
              "_Comments": ""
            },
            {
              "_NAME": "SESTDY",
              "_LABEL": "Study Day of Start of Observation",
              "_TYPE": "Num",
              "_LENGTH": "8",
              "_ROLE": "Timing",
              "_CORE": "Perm",
              "_CONTROLLED": "",
              "_DESCRIPTION": "",
              "_ORIGIN": "Derived",
              "_ORDER": "109",
              "_Comments": "Relative study day between <SESTDTC> and DM.RFSTDTC. Add 1 if the difference is greater than or equal to 0."
            },
            {
              "_NAME": "SEENDY",
              "_LABEL": "Study Day of End of Observation",
              "_TYPE": "Num",
              "_LENGTH": "8",
              "_ROLE": "Timing",
              "_CORE": "Perm",
              "_CONTROLLED": "",
              "_DESCRIPTION": "",
              "_ORIGIN": "Derived",
              "_ORDER": "110",
              "_Comments": "Relative study day between <SEENDTC> and DM.RFSTDTC. Add 1 if the difference is greater than or equal to 0."
            },
            {
              "_NAME": "TAETORD",
              "_LABEL": "Planned Order of Element within Arm",
              "_TYPE": "Num",
              "_LENGTH": "8",
              "_ROLE": "Timing",
              "_CORE": "Perm",
              "_CONTROLLED": "",
              "_DESCRIPTION": "",
              "_ORIGIN": "Assigned",
              "_ORDER": "103",
              "_Comments": ""
            },
            {
              "_NAME": "EPOCH",
              "_LABEL": "Epoch",
              "_TYPE": "Char",
              "_LENGTH": "50",
              "_ROLE": "Timing",
              "_CORE": "Perm",
              "_CONTROLLED": "",
              "_DESCRIPTION": "",
              "_ORIGIN": "Assigned",
              "_ORDER": "104",
              "_Comments": ""
            },
            {
              "_NAME": "SEUPDES",
              "_LABEL": "Description of Unplanned Element",
              "_TYPE": "Char",
              "_LENGTH": "200",
              "_ROLE": "Synonym Qualifier",
              "_CORE": "Perm",
              "_CONTROLLED": "",
              "_DESCRIPTION": "",
              "_ORIGIN": "Assigned",
              "_ORDER": "125",
              "_Comments": ""
            }
          ]
        },
        "KEYVARIABLES": {
          "children": [
            {
              "_NAME": "STUDYID"
            },
            {
              "_NAME": "USUBJID"
            },
            {
              "_NAME": "ELEMENT"
            },
            {
              "_NAME": "SESTDTC"
            }
          ]
        },
        "_CODE": "SE",
        "_NAME": "Subject Elements",
        "_STRUCTURE": "One record per actual Element per subject",
        "_CLASS": "Special Purpose Domains",
        "_DESCRIPTION": ""
      },
      {
        "VARIABLES": {
          "children": [
            {
              "_NAME": "STUDYID",
              "_LABEL": "Study Identifier",
              "_TYPE": "Char",
              "_LENGTH": "20",
              "_ROLE": "Identifier",
              "_CORE": "Req",
              "_CONTROLLED": "",
              "_DESCRIPTION": "",
              "_ORIGIN": "Assigned",
              "_ORDER": "1",
              "_Comments": ""
            },
            {
              "_NAME": "DOMAIN",
              "_LABEL": "Domain Abbreviation",
              "_TYPE": "Char",
              "_LENGTH": "2",
              "_ROLE": "Identifier",
              "_CORE": "Req",
              "_CONTROLLED": "",
              "_DESCRIPTION": "",
              "_ORIGIN": "Assigned",
              "_ORDER": "2",
              "_Comments": ""
            },
            {
              "_NAME": "USUBJID",
              "_LABEL": "Unique Subject Identifier",
              "_TYPE": "Char",
              "_LENGTH": "25",
              "_ROLE": "Identifier",
              "_CORE": "Req",
              "_CONTROLLED": "",
              "_DESCRIPTION": "",
              "_ORIGIN": "Derived",
              "_ORDER": "4",
              "_Comments": "Concatenate STUDYID, SITEID and SUBJID, separated by \"-\"."
            },
            {
              "_NAME": "VISITNUM",
              "_LABEL": "Visit Number",
              "_TYPE": "Num",
              "_LENGTH": "8",
              "_ROLE": "Topic",
              "_CORE": "Req",
              "_CONTROLLED": "",
              "_DESCRIPTION": "",
              "_ORIGIN": "Assigned",
              "_ORDER": "100",
              "_Comments": ""
            },
            {
              "_NAME": "VISIT",
              "_LABEL": "Visit Name",
              "_TYPE": "Char",
              "_LENGTH": "200",
              "_ROLE": "Synonym Qualifier",
              "_CORE": "Perm",
              "_CONTROLLED": "",
              "_DESCRIPTION": "",
              "_ORIGIN": "Assigned",
              "_ORDER": "101",
              "_Comments": ""
            },
            {
              "_NAME": "VISITDY",
              "_LABEL": "Planned Study Day of Visit",
              "_TYPE": "Num",
              "_LENGTH": "8",
              "_ROLE": "Timing",
              "_CORE": "Perm",
              "_CONTROLLED": "",
              "_DESCRIPTION": "",
              "_ORIGIN": "Protocol",
              "_ORDER": "102",
              "_Comments": ""
            },
            {
              "_NAME": "SVDTC",
              "_LABEL": "Date/Time of Collection",
              "_TYPE": "Char",
              "_LENGTH": "20",
              "_ROLE": "Timing",
              "_CORE": "Perm",
              "_CONTROLLED": "ISO 8601",
              "_DESCRIPTION": "",
              "_ORIGIN": "Assigned",
              "_ORDER": "105",
              "_Comments": ""
            },
            {
              "_NAME": "SVSTDTC",
              "_LABEL": "Start Date/Time of Visit",
              "_TYPE": "Char",
              "_LENGTH": "20",
              "_ROLE": "Timing",
              "_CORE": "Exp",
              "_CONTROLLED": "ISO 8601",
              "_DESCRIPTION": "",
              "_ORIGIN": "Derived",
              "_ORDER": "106",
              "_Comments": "Equal to first date/time of visit"
            },
            {
              "_NAME": "SVENDTC",
              "_LABEL": "End Date/Time of Visit",
              "_TYPE": "Char",
              "_LENGTH": "20",
              "_ROLE": "Timing",
              "_CORE": "Exp",
              "_CONTROLLED": "ISO 8601",
              "_DESCRIPTION": "",
              "_ORIGIN": "Derived",
              "_ORDER": "107",
              "_Comments": "Equal to last date/time of visit"
            },
            {
              "_NAME": "SVDY",
              "_LABEL": "Study Day of Visit/Collection/Exam",
              "_TYPE": "Num",
              "_LENGTH": "8",
              "_ROLE": "Timing",
              "_CORE": "Perm",
              "_CONTROLLED": "",
              "_DESCRIPTION": "",
              "_ORIGIN": "Derived",
              "_ORDER": "108",
              "_Comments": "Relative study day between <SVDTC> and DM.RFSTDTC. Add 1 if the difference is greater than or equal to 0."
            },
            {
              "_NAME": "SVSTDY",
              "_LABEL": "Study Day of Start of Visit",
              "_TYPE": "Num",
              "_LENGTH": "8",
              "_ROLE": "Timing",
              "_CORE": "Perm",
              "_CONTROLLED": "",
              "_DESCRIPTION": "",
              "_ORIGIN": "Derived",
              "_ORDER": "109",
              "_Comments": "Relative study day between <SVSTDTC> and DM.RFSTDTC. Add 1 if the difference is greater than or equal to 0."
            },
            {
              "_NAME": "SVENDY",
              "_LABEL": "Study Day of End of Visit",
              "_TYPE": "Num",
              "_LENGTH": "8",
              "_ROLE": "Timing",
              "_CORE": "Perm",
              "_CONTROLLED": "",
              "_DESCRIPTION": "",
              "_ORIGIN": "Derived",
              "_ORDER": "110",
              "_Comments": "Relative study day between <SVENDTC> and DM.RFSTDTC. Add 1 if the difference is greater than or equal to 0."
            },
            {
              "_NAME": "SVUPDES",
              "_LABEL": "Description of Unplanned Visit",
              "_TYPE": "Char",
              "_LENGTH": "200",
              "_ROLE": "Synonym Qualifier",
              "_CORE": "Perm",
              "_CONTROLLED": "",
              "_DESCRIPTION": "",
              "_ORIGIN": "Assigned",
              "_ORDER": "125",
              "_Comments": ""
            }
          ]
        },
        "KEYVARIABLES": {
          "children": [
            {
              "_NAME": "STUDYID"
            },
            {
              "_NAME": "USUBJID"
            },
            {
              "_NAME": "VISITNUM"
            },
            {
              "_NAME": "VISIT"
            },
            {
              "_NAME": "SVSTDTC"
            }
          ]
        },
        "_CODE": "SV",
        "_NAME": "Subject Visits",
        "_STRUCTURE": "One record per actual visit per subject",
        "_CLASS": "Special Purpose Domains",
        "_DESCRIPTION": ""
      },
      {
        "VARIABLES": {
          "children": [
            {
              "_NAME": "STUDYID",
              "_LABEL": "Study Identifier",
              "_TYPE": "Char",
              "_LENGTH": "20",
              "_ROLE": "Identifier",
              "_CORE": "Req",
              "_CONTROLLED": "",
              "_DESCRIPTION": "",
              "_ORIGIN": "Assigned",
              "_ORDER": "1",
              "_Comments": ""
            },
            {
              "_NAME": "DOMAIN",
              "_LABEL": "Domain Abbreviation",
              "_TYPE": "Char",
              "_LENGTH": "2",
              "_ROLE": "Identifier",
              "_CORE": "Req",
              "_CONTROLLED": "",
              "_DESCRIPTION": "",
              "_ORIGIN": "Assigned",
              "_ORDER": "2",
              "_Comments": ""
            },
            {
              "_NAME": "USUBJID",
              "_LABEL": "Unique Subject Identifier",
              "_TYPE": "Char",
              "_LENGTH": "25",
              "_ROLE": "Identifier",
              "_CORE": "Req",
              "_CONTROLLED": "",
              "_DESCRIPTION": "",
              "_ORIGIN": "Derived",
              "_ORDER": "4",
              "_Comments": "Concatenate STUDYID, SITEID and SUBJID, separated by \"-\"."
            },
            {
              "_NAME": "CMSEQ",
              "_LABEL": "Sequence Number",
              "_TYPE": "Num",
              "_LENGTH": "8",
              "_ROLE": "Identifier",
              "_CORE": "Req",
              "_CONTROLLED": "",
              "_DESCRIPTION": "",
              "_ORIGIN": "Derived",
              "_ORDER": "8",
              "_Comments": "Sort by the key variables specified in the domain list. Assign CMSEQ=1 to the first record and increment CMSEQ by 1 for each additional record so that CMSEQ is unique for each record within a USUBJID."
            },
            {
              "_NAME": "CMGRPID",
              "_LABEL": "Group ID",
              "_TYPE": "Char",
              "_LENGTH": "20",
              "_ROLE": "Identifier",
              "_CORE": "Perm",
              "_CONTROLLED": "",
              "_DESCRIPTION": "",
              "_ORIGIN": "Assigned",
              "_ORDER": "9",
              "_Comments": ""
            },
            {
              "_NAME": "CMSPID",
              "_LABEL": "Sponsor-Defined Identifier",
              "_TYPE": "Char",
              "_LENGTH": "20",
              "_ROLE": "Identifier",
              "_CORE": "Perm",
              "_CONTROLLED": "",
              "_DESCRIPTION": "",
              "_ORIGIN": "Assigned",
              "_ORDER": "11",
              "_Comments": ""
            },
            {
              "_NAME": "CMTRT",
              "_LABEL": "Reported Name of Drug, Med, or Therapy",
              "_TYPE": "Char",
              "_LENGTH": "200",
              "_ROLE": "Topic",
              "_CORE": "Req",
              "_CONTROLLED": "",
              "_DESCRIPTION": "",
              "_ORIGIN": "Assigned",
              "_ORDER": "20",
              "_Comments": ""
            },
            {
              "_NAME": "CMMODIFY",
              "_LABEL": "Modified Reported Name",
              "_TYPE": "Char",
              "_LENGTH": "200",
              "_ROLE": "Synonym Qualifier",
              "_CORE": "Perm",
              "_CONTROLLED": "",
              "_DESCRIPTION": "",
              "_ORIGIN": "Assigned",
              "_ORDER": "21",
              "_Comments": ""
            },
            {
              "_NAME": "CMDECOD",
              "_LABEL": "Standardized Medication Name",
              "_TYPE": "Char",
              "_LENGTH": "200",
              "_ROLE": "Synonym Qualifier",
              "_CORE": "Perm",
              "_CONTROLLED": "(DRUGDICT)",
              "_DESCRIPTION": "",
              "_ORIGIN": "Assigned",
              "_ORDER": "22",
              "_Comments": "WHODRUG Version 2010.09"
            },
            {
              "_NAME": "CMCAT",
              "_LABEL": "Category for Medication",
              "_TYPE": "Char",
              "_LENGTH": "200",
              "_ROLE": "Grouping Qualifier",
              "_CORE": "Perm",
              "_CONTROLLED": "",
              "_DESCRIPTION": "",
              "_ORIGIN": "Assigned",
              "_ORDER": "23",
              "_Comments": ""
            },
            {
              "_NAME": "CMSCAT",
              "_LABEL": "Subcategory for Medication",
              "_TYPE": "Char",
              "_LENGTH": "200",
              "_ROLE": "Grouping Qualifier",
              "_CORE": "Perm",
              "_CONTROLLED": "",
              "_DESCRIPTION": "",
              "_ORIGIN": "Assigned",
              "_ORDER": "24",
              "_Comments": ""
            },
            {
              "_NAME": "CMPRESP",
              "_LABEL": "CM Pre-Specified",
              "_TYPE": "Char",
              "_LENGTH": "1",
              "_ROLE": "Record Qualifier",
              "_CORE": "Perm",
              "_CONTROLLED": "(NY)",
              "_DESCRIPTION": "",
              "_ORIGIN": "Assigned",
              "_ORDER": "25",
              "_Comments": ""
            },
            {
              "_NAME": "CMOCCUR",
              "_LABEL": "CM Occurrence",
              "_TYPE": "Char",
              "_LENGTH": "1",
              "_ROLE": "Record Qualifier",
              "_CORE": "Perm",
              "_CONTROLLED": "(NY)",
              "_DESCRIPTION": "",
              "_ORIGIN": "Assigned",
              "_ORDER": "26",
              "_Comments": ""
            },
            {
              "_NAME": "CMSTAT",
              "_LABEL": "Completion Status",
              "_TYPE": "Char",
              "_LENGTH": "8",
              "_ROLE": "Record Qualifier",
              "_CORE": "Perm",
              "_CONTROLLED": "(ND)",
              "_DESCRIPTION": "",
              "_ORIGIN": "Assigned",
              "_ORDER": "27",
              "_Comments": ""
            },
            {
              "_NAME": "CMREASND",
              "_LABEL": "Reason Medication Not Collected",
              "_TYPE": "Char",
              "_LENGTH": "200",
              "_ROLE": "Record Qualifier",
              "_CORE": "Perm",
              "_CONTROLLED": "",
              "_DESCRIPTION": "",
              "_ORIGIN": "Assigned",
              "_ORDER": "28",
              "_Comments": ""
            },
            {
              "_NAME": "CMINDC",
              "_LABEL": "Indication",
              "_TYPE": "Char",
              "_LENGTH": "200",
              "_ROLE": "Record Qualifier",
              "_CORE": "Perm",
              "_CONTROLLED": "",
              "_DESCRIPTION": "",
              "_ORIGIN": "Assigned",
              "_ORDER": "29",
              "_Comments": ""
            },
            {
              "_NAME": "CMCLAS",
              "_LABEL": "Medication Class",
              "_TYPE": "Char",
              "_LENGTH": "200",
              "_ROLE": "Variable Qualifier",
              "_CORE": "Perm",
              "_CONTROLLED": "",
              "_DESCRIPTION": "",
              "_ORIGIN": "Assigned",
              "_ORDER": "30",
              "_Comments": "WHODRUG Version 2010.09"
            },
            {
              "_NAME": "CMCLASCD",
              "_LABEL": "Medication Class Code",
              "_TYPE": "Char",
              "_LENGTH": "8",
              "_ROLE": "Variable Qualifier",
              "_CORE": "Perm",
              "_CONTROLLED": "",
              "_DESCRIPTION": "",
              "_ORIGIN": "Assigned",
              "_ORDER": "31",
              "_Comments": "WHODRUG Version 2010.09"
            },
            {
              "_NAME": "CMDOSE",
              "_LABEL": "Dose per Administration",
              "_TYPE": "Num",
              "_LENGTH": "8",
              "_ROLE": "Record Qualifier",
              "_CORE": "Perm",
              "_CONTROLLED": "",
              "_DESCRIPTION": "",
              "_ORIGIN": "Assigned",
              "_ORDER": "32",
              "_Comments": ""
            },
            {
              "_NAME": "CMDOSTXT",
              "_LABEL": "Dose Description",
              "_TYPE": "Char",
              "_LENGTH": "200",
              "_ROLE": "Record Qualifier",
              "_CORE": "Perm",
              "_CONTROLLED": "",
              "_DESCRIPTION": "",
              "_ORIGIN": "Assigned",
              "_ORDER": "33",
              "_Comments": ""
            },
            {
              "_NAME": "CMDOSU",
              "_LABEL": "Dose Units",
              "_TYPE": "Char",
              "_LENGTH": "20",
              "_ROLE": "Variable Qualifier",
              "_CORE": "Perm",
              "_CONTROLLED": "(UNIT)",
              "_DESCRIPTION": "",
              "_ORIGIN": "Assigned",
              "_ORDER": "34",
              "_Comments": ""
            },
            {
              "_NAME": "CMDOSFRM",
              "_LABEL": "Dose Form",
              "_TYPE": "Char",
              "_LENGTH": "200",
              "_ROLE": "Variable Qualifier",
              "_CORE": "Perm",
              "_CONTROLLED": "(FRM)",
              "_DESCRIPTION": "",
              "_ORIGIN": "Assigned",
              "_ORDER": "35",
              "_Comments": ""
            },
            {
              "_NAME": "CMDOSFRQ",
              "_LABEL": "Dosing Frequency per Interval",
              "_TYPE": "Char",
              "_LENGTH": "50",
              "_ROLE": "Variable Qualifier",
              "_CORE": "Perm",
              "_CONTROLLED": "(FREQ)",
              "_DESCRIPTION": "",
              "_ORIGIN": "Assigned",
              "_ORDER": "36",
              "_Comments": ""
            },
            {
              "_NAME": "CMDOSTOT",
              "_LABEL": "Total Daily Dose",
              "_TYPE": "Num",
              "_LENGTH": "8",
              "_ROLE": "Record Qualifier",
              "_CORE": "Perm",
              "_CONTROLLED": "",
              "_DESCRIPTION": "",
              "_ORIGIN": "Assigned",
              "_ORDER": "37",
              "_Comments": ""
            },
            {
              "_NAME": "CMDOSRGM",
              "_LABEL": "Intended Dose Regimen",
              "_TYPE": "Char",
              "_LENGTH": "50",
              "_ROLE": "Variable Qualifier",
              "_CORE": "Perm",
              "_CONTROLLED": "",
              "_DESCRIPTION": "",
              "_ORIGIN": "Assigned",
              "_ORDER": "38",
              "_Comments": ""
            },
            {
              "_NAME": "CMROUTE",
              "_LABEL": "Route of Administration",
              "_TYPE": "Char",
              "_LENGTH": "50",
              "_ROLE": "Variable Qualifier",
              "_CORE": "Perm",
              "_CONTROLLED": "(ROUTE)",
              "_DESCRIPTION": "",
              "_ORIGIN": "Assigned",
              "_ORDER": "39",
              "_Comments": ""
            },
            {
              "_NAME": "CMSTDTC",
              "_LABEL": "Start Date/Time of Medication",
              "_TYPE": "Char",
              "_LENGTH": "20",
              "_ROLE": "Timing",
              "_CORE": "Perm",
              "_CONTROLLED": "ISO 8601",
              "_DESCRIPTION": "",
              "_ORIGIN": "Assigned",
              "_ORDER": "106",
              "_Comments": ""
            },
            {
              "_NAME": "CMENDTC",
              "_LABEL": "End Date/Time of Medication",
              "_TYPE": "Char",
              "_LENGTH": "20",
              "_ROLE": "Timing",
              "_CORE": "Perm",
              "_CONTROLLED": "ISO 8601",
              "_DESCRIPTION": "",
              "_ORIGIN": "Assigned",
              "_ORDER": "107",
              "_Comments": ""
            },
            {
              "_NAME": "CMSTDY",
              "_LABEL": "Study Day of Start of Medication",
              "_TYPE": "Num",
              "_LENGTH": "8",
              "_ROLE": "Timing",
              "_CORE": "Perm",
              "_CONTROLLED": "",
              "_DESCRIPTION": "",
              "_ORIGIN": "Derived",
              "_ORDER": "109",
              "_Comments": "Relative study day between <CMSTDTC> and DM.RFSTDTC. Add 1 if the difference is greater than or equal to 0."
            },
            {
              "_NAME": "CMENDY",
              "_LABEL": "Study Day of End of Medication",
              "_TYPE": "Num",
              "_LENGTH": "8",
              "_ROLE": "Timing",
              "_CORE": "Perm",
              "_CONTROLLED": "",
              "_DESCRIPTION": "",
              "_ORIGIN": "Derived",
              "_ORDER": "110",
              "_Comments": "Relative study day between <CMENDTC> and DM.RFSTDTC. Add 1 if the difference is greater than or equal to 0."
            },
            {
              "_NAME": "CMDUR",
              "_LABEL": "Duration of Medication",
              "_TYPE": "Char",
              "_LENGTH": "50",
              "_ROLE": "Timing",
              "_CORE": "Perm",
              "_CONTROLLED": "ISO 8601",
              "_DESCRIPTION": "",
              "_ORIGIN": "Assigned",
              "_ORDER": "111",
              "_Comments": ""
            },
            {
              "_NAME": "CMSTRF",
              "_LABEL": "Start Relative to Reference Period",
              "_TYPE": "Char",
              "_LENGTH": "12",
              "_ROLE": "Timing",
              "_CORE": "Perm",
              "_CONTROLLED": "(STENRF)",
              "_DESCRIPTION": "",
              "_ORIGIN": "Assigned",
              "_ORDER": "117",
              "_Comments": ""
            },
            {
              "_NAME": "CMENRF",
              "_LABEL": "End Relative to Reference Period",
              "_TYPE": "Char",
              "_LENGTH": "12",
              "_ROLE": "Timing",
              "_CORE": "Perm",
              "_CONTROLLED": "(STENRF)",
              "_DESCRIPTION": "",
              "_ORIGIN": "Assigned",
              "_ORDER": "118",
              "_Comments": ""
            },
            {
              "_NAME": "CMSTRTPT",
              "_LABEL": "Start Relative to Reference Time Point",
              "_TYPE": "Char",
              "_LENGTH": "12",
              "_ROLE": "Timing",
              "_CORE": "Perm",
              "_CONTROLLED": "(STENRF)",
              "_DESCRIPTION": "",
              "_ORIGIN": "Assigned",
              "_ORDER": "120",
              "_Comments": ""
            },
            {
              "_NAME": "CMSTTPT",
              "_LABEL": "Start Reference Time Point",
              "_TYPE": "Char",
              "_LENGTH": "200",
              "_ROLE": "Timing",
              "_CORE": "Perm",
              "_CONTROLLED": "",
              "_DESCRIPTION": "",
              "_ORIGIN": "Assigned",
              "_ORDER": "121",
              "_Comments": ""
            },
            {
              "_NAME": "CMENRTPT",
              "_LABEL": "End Relative to Reference Time Point",
              "_TYPE": "Char",
              "_LENGTH": "12",
              "_ROLE": "Timing",
              "_CORE": "Perm",
              "_CONTROLLED": "(STENRF)",
              "_DESCRIPTION": "",
              "_ORIGIN": "Assigned",
              "_ORDER": "122",
              "_Comments": ""
            },
            {
              "_NAME": "CMENTPT",
              "_LABEL": "End Reference Time Point",
              "_TYPE": "Char",
              "_LENGTH": "200",
              "_ROLE": "Timing",
              "_CORE": "Perm",
              "_CONTROLLED": "",
              "_DESCRIPTION": "",
              "_ORIGIN": "Assigned",
              "_ORDER": "123",
              "_Comments": ""
            }
          ]
        },
        "KEYVARIABLES": {
          "children": [
            {
              "_NAME": "STUDYID"
            },
            {
              "_NAME": "USUBJID"
            },
            {
              "_NAME": "CMSTDTC"
            },
            {
              "_NAME": "CMTRT"
            }
          ]
        },
        "_CODE": "CM",
        "_NAME": "Concomitant Medications",
        "_STRUCTURE": "One record per recorded medication occurrence or constant-dosing interval per subject",
        "_CLASS": "Interventions",
        "_DESCRIPTION": ""
      },
      {
        "VARIABLES": {
          "children": [
            {
              "_NAME": "STUDYID",
              "_LABEL": "Study Identifier",
              "_TYPE": "Char",
              "_LENGTH": "20",
              "_ROLE": "Identifier",
              "_CORE": "Req",
              "_CONTROLLED": "",
              "_DESCRIPTION": "",
              "_ORIGIN": "Assigned",
              "_ORDER": "1",
              "_Comments": ""
            },
            {
              "_NAME": "DOMAIN",
              "_LABEL": "Domain Abbreviation",
              "_TYPE": "Char",
              "_LENGTH": "2",
              "_ROLE": "Identifier",
              "_CORE": "Req",
              "_CONTROLLED": "",
              "_DESCRIPTION": "",
              "_ORIGIN": "Assigned",
              "_ORDER": "2",
              "_Comments": ""
            },
            {
              "_NAME": "USUBJID",
              "_LABEL": "Unique Subject Identifier",
              "_TYPE": "Char",
              "_LENGTH": "25",
              "_ROLE": "Identifier",
              "_CORE": "Req",
              "_CONTROLLED": "",
              "_DESCRIPTION": "",
              "_ORIGIN": "Derived",
              "_ORDER": "4",
              "_Comments": "Concatenate STUDYID, SITEID and SUBJID, separated by \"-\"."
            },
            {
              "_NAME": "EXSEQ",
              "_LABEL": "Sequence Number",
              "_TYPE": "Num",
              "_LENGTH": "8",
              "_ROLE": "Identifier",
              "_CORE": "Req",
              "_CONTROLLED": "",
              "_DESCRIPTION": "",
              "_ORIGIN": "Derived",
              "_ORDER": "8",
              "_Comments": "Sort by the key variables specified in the domain list. Assign EXSEQ=1 to the first record and increment EXSEQ by 1 for each additional record so that EXSEQ is unique for each record within a USUBJID."
            },
            {
              "_NAME": "EXGRPID",
              "_LABEL": "Group ID",
              "_TYPE": "Char",
              "_LENGTH": "20",
              "_ROLE": "Identifier",
              "_CORE": "Perm",
              "_CONTROLLED": "",
              "_DESCRIPTION": "",
              "_ORIGIN": "Assigned",
              "_ORDER": "9",
              "_Comments": ""
            },
            {
              "_NAME": "EXREFID",
              "_LABEL": "Reference ID",
              "_TYPE": "Char",
              "_LENGTH": "20",
              "_ROLE": "Identifier",
              "_CORE": "Perm",
              "_CONTROLLED": "",
              "_DESCRIPTION": "",
              "_ORIGIN": "Assigned",
              "_ORDER": "10",
              "_Comments": ""
            },
            {
              "_NAME": "EXSPID",
              "_LABEL": "Sponsor-Defined Identifier",
              "_TYPE": "Char",
              "_LENGTH": "20",
              "_ROLE": "Identifier",
              "_CORE": "Perm",
              "_CONTROLLED": "",
              "_DESCRIPTION": "",
              "_ORIGIN": "Assigned",
              "_ORDER": "11",
              "_Comments": ""
            },
            {
              "_NAME": "EXTRT",
              "_LABEL": "Name of Actual Treatment",
              "_TYPE": "Char",
              "_LENGTH": "200",
              "_ROLE": "Topic",
              "_CORE": "Req",
              "_CONTROLLED": "",
              "_DESCRIPTION": "",
              "_ORIGIN": "Assigned",
              "_ORDER": "20",
              "_Comments": ""
            },
            {
              "_NAME": "EXCAT",
              "_LABEL": "Category for Treatment",
              "_TYPE": "Char",
              "_LENGTH": "200",
              "_ROLE": "Grouping Qualifier",
              "_CORE": "Perm",
              "_CONTROLLED": "",
              "_DESCRIPTION": "",
              "_ORIGIN": "Assigned",
              "_ORDER": "23",
              "_Comments": ""
            },
            {
              "_NAME": "EXSCAT",
              "_LABEL": "Subcategory for Treatment",
              "_TYPE": "Char",
              "_LENGTH": "200",
              "_ROLE": "Grouping Qualifier",
              "_CORE": "Perm",
              "_CONTROLLED": "",
              "_DESCRIPTION": "",
              "_ORIGIN": "Assigned",
              "_ORDER": "24",
              "_Comments": ""
            },
            {
              "_NAME": "EXDOSE",
              "_LABEL": "Dose per Administration",
              "_TYPE": "Num",
              "_LENGTH": "8",
              "_ROLE": "Record Qualifier",
              "_CORE": "Exp",
              "_CONTROLLED": "",
              "_DESCRIPTION": "",
              "_ORIGIN": "Assigned",
              "_ORDER": "32",
              "_Comments": ""
            },
            {
              "_NAME": "EXDOSTXT",
              "_LABEL": "Dose Description",
              "_TYPE": "Char",
              "_LENGTH": "200",
              "_ROLE": "Record Qualifier",
              "_CORE": "Perm",
              "_CONTROLLED": "",
              "_DESCRIPTION": "",
              "_ORIGIN": "Assigned",
              "_ORDER": "33",
              "_Comments": ""
            },
            {
              "_NAME": "EXDOSU",
              "_LABEL": "Dose Units",
              "_TYPE": "Char",
              "_LENGTH": "20",
              "_ROLE": "Variable Qualifier",
              "_CORE": "Exp",
              "_CONTROLLED": "(UNIT)",
              "_DESCRIPTION": "",
              "_ORIGIN": "Protocol",
              "_ORDER": "34",
              "_Comments": ""
            },
            {
              "_NAME": "EXDOSFRM",
              "_LABEL": "Dose Form",
              "_TYPE": "Char",
              "_LENGTH": "200",
              "_ROLE": "Variable Qualifier",
              "_CORE": "Exp",
              "_CONTROLLED": "(FRM)",
              "_DESCRIPTION": "",
              "_ORIGIN": "Protocol",
              "_ORDER": "35",
              "_Comments": ""
            },
            {
              "_NAME": "EXDOSFRQ",
              "_LABEL": "Dosing Frequency per Interval",
              "_TYPE": "Char",
              "_LENGTH": "50",
              "_ROLE": "Variable Qualifier",
              "_CORE": "Perm",
              "_CONTROLLED": "(FREQ)",
              "_DESCRIPTION": "",
              "_ORIGIN": "Protocol",
              "_ORDER": "36",
              "_Comments": ""
            },
            {
              "_NAME": "EXDOSTOT",
              "_LABEL": "Total Daily Dose",
              "_TYPE": "Num",
              "_LENGTH": "8",
              "_ROLE": "Record Qualifier",
              "_CORE": "Perm",
              "_CONTROLLED": "",
              "_DESCRIPTION": "",
              "_ORIGIN": "Derived",
              "_ORDER": "37",
              "_Comments": "Derived from EXDOSE and EXDOSFRQ"
            },
            {
              "_NAME": "EXDOSRGM",
              "_LABEL": "Intended Dose Regimen",
              "_TYPE": "Char",
              "_LENGTH": "50",
              "_ROLE": "Variable Qualifier",
              "_CORE": "Perm",
              "_CONTROLLED": "",
              "_DESCRIPTION": "",
              "_ORIGIN": "Protocol",
              "_ORDER": "38",
              "_Comments": ""
            },
            {
              "_NAME": "EXROUTE",
              "_LABEL": "Route of Administration",
              "_TYPE": "Char",
              "_LENGTH": "50",
              "_ROLE": "Variable Qualifier",
              "_CORE": "Perm",
              "_CONTROLLED": "(ROUTE)",
              "_DESCRIPTION": "",
              "_ORIGIN": "Protocol",
              "_ORDER": "39",
              "_Comments": ""
            },
            {
              "_NAME": "EXLOT",
              "_LABEL": "Lot Number",
              "_TYPE": "Char",
              "_LENGTH": "50",
              "_ROLE": "Record Qualifier",
              "_CORE": "Perm",
              "_CONTROLLED": "",
              "_DESCRIPTION": "",
              "_ORIGIN": "Assigned",
              "_ORDER": "40",
              "_Comments": ""
            },
            {
              "_NAME": "EXLOC",
              "_LABEL": "Location of Dose Administration",
              "_TYPE": "Char",
              "_LENGTH": "200",
              "_ROLE": "Record Qualifier",
              "_CORE": "Perm",
              "_CONTROLLED": "(LOC)",
              "_DESCRIPTION": "",
              "_ORIGIN": "Protocol",
              "_ORDER": "41",
              "_Comments": ""
            },
            {
              "_NAME": "EXTRTV",
              "_LABEL": "Treatment Vehicle",
              "_TYPE": "Char",
              "_LENGTH": "200",
              "_ROLE": "Record Qualifier",
              "_CORE": "Perm",
              "_CONTROLLED": "",
              "_DESCRIPTION": "",
              "_ORIGIN": "Protocol",
              "_ORDER": "42",
              "_Comments": ""
            },
            {
              "_NAME": "EXVAMT",
              "_LABEL": "Treatment Vehicle Amount",
              "_TYPE": "Num",
              "_LENGTH": "8",
              "_ROLE": "Variable Qualifier",
              "_CORE": "Perm",
              "_CONTROLLED": "",
              "_DESCRIPTION": "",
              "_ORIGIN": "Protocol",
              "_ORDER": "43",
              "_Comments": ""
            },
            {
              "_NAME": "EXVAMTU",
              "_LABEL": "Treatment Vehicle Amount Units",
              "_TYPE": "Char",
              "_LENGTH": "20",
              "_ROLE": "Variable Qualifier",
              "_CORE": "Perm",
              "_CONTROLLED": "(UNIT)",
              "_DESCRIPTION": "",
              "_ORIGIN": "Protocol",
              "_ORDER": "44",
              "_Comments": ""
            },
            {
              "_NAME": "EXADJ",
              "_LABEL": "Reason for Dose Adjustment",
              "_TYPE": "Char",
              "_LENGTH": "200",
              "_ROLE": "Record Qualifier",
              "_CORE": "Perm",
              "_CONTROLLED": "",
              "_DESCRIPTION": "",
              "_ORIGIN": "Assigned",
              "_ORDER": "45",
              "_Comments": ""
            },
            {
              "_NAME": "TAETORD",
              "_LABEL": "Planned Order of Element within Arm",
              "_TYPE": "Num",
              "_LENGTH": "8",
              "_ROLE": "Timing",
              "_CORE": "Perm",
              "_CONTROLLED": "",
              "_DESCRIPTION": "",
              "_ORIGIN": "Assigned",
              "_ORDER": "103",
              "_Comments": ""
            },
            {
              "_NAME": "EPOCH",
              "_LABEL": "Epoch",
              "_TYPE": "Char",
              "_LENGTH": "50",
              "_ROLE": "Timing",
              "_CORE": "Perm",
              "_CONTROLLED": "",
              "_DESCRIPTION": "",
              "_ORIGIN": "Assigned",
              "_ORDER": "104",
              "_Comments": ""
            },
            {
              "_NAME": "EXSTDTC",
              "_LABEL": "Start Date/Time of Treatment",
              "_TYPE": "Char",
              "_LENGTH": "20",
              "_ROLE": "Timing",
              "_CORE": "Exp",
              "_CONTROLLED": "ISO 8601",
              "_DESCRIPTION": "",
              "_ORIGIN": "Assigned",
              "_ORDER": "106",
              "_Comments": ""
            },
            {
              "_NAME": "EXENDTC",
              "_LABEL": "End Date/Time of Treatment",
              "_TYPE": "Char",
              "_LENGTH": "20",
              "_ROLE": "Timing",
              "_CORE": "Perm",
              "_CONTROLLED": "ISO 8601",
              "_DESCRIPTION": "",
              "_ORIGIN": "Assigned",
              "_ORDER": "107",
              "_Comments": ""
            },
            {
              "_NAME": "EXSTDY",
              "_LABEL": "Study Day of Start of Treatment",
              "_TYPE": "Num",
              "_LENGTH": "8",
              "_ROLE": "Timing",
              "_CORE": "Perm",
              "_CONTROLLED": "",
              "_DESCRIPTION": "",
              "_ORIGIN": "Derived",
              "_ORDER": "109",
              "_Comments": "Relative study day between <EXSTDTC> and DM.RFSTDTC. Add 1 if the difference is greater than or equal to 0."
            },
            {
              "_NAME": "EXENDY",
              "_LABEL": "Study Day of End of Treatment",
              "_TYPE": "Num",
              "_LENGTH": "8",
              "_ROLE": "Timing",
              "_CORE": "Perm",
              "_CONTROLLED": "",
              "_DESCRIPTION": "",
              "_ORIGIN": "Derived",
              "_ORDER": "110",
              "_Comments": "Relative study day between <EXENDTC> and DM.RFSTDTC. Add 1 if the difference is greater than or equal to 0."
            },
            {
              "_NAME": "EXDUR",
              "_LABEL": "Duration of Treatment",
              "_TYPE": "Char",
              "_LENGTH": "50",
              "_ROLE": "Timing",
              "_CORE": "Perm",
              "_CONTROLLED": "ISO 8601",
              "_DESCRIPTION": "",
              "_ORIGIN": "Assigned",
              "_ORDER": "111",
              "_Comments": ""
            },
            {
              "_NAME": "EXTPT",
              "_LABEL": "Planned Time Point Name",
              "_TYPE": "Char",
              "_LENGTH": "200",
              "_ROLE": "Timing",
              "_CORE": "Perm",
              "_CONTROLLED": "",
              "_DESCRIPTION": "",
              "_ORIGIN": "Assigned",
              "_ORDER": "112",
              "_Comments": ""
            },
            {
              "_NAME": "EXTPTNUM",
              "_LABEL": "Planned Time Point Number",
              "_TYPE": "Num",
              "_LENGTH": "8",
              "_ROLE": "Timing",
              "_CORE": "Perm",
              "_CONTROLLED": "",
              "_DESCRIPTION": "",
              "_ORIGIN": "Assigned",
              "_ORDER": "113",
              "_Comments": ""
            },
            {
              "_NAME": "EXELTM",
              "_LABEL": "Planned Elapsed Time from Time Point Ref",
              "_TYPE": "Char",
              "_LENGTH": "20",
              "_ROLE": "Timing",
              "_CORE": "Perm",
              "_CONTROLLED": "ISO 8601",
              "_DESCRIPTION": "",
              "_ORIGIN": "Protocol",
              "_ORDER": "114",
              "_Comments": ""
            },
            {
              "_NAME": "EXTPTREF",
              "_LABEL": "Time Point Reference",
              "_TYPE": "Char",
              "_LENGTH": "200",
              "_ROLE": "Timing",
              "_CORE": "Perm",
              "_CONTROLLED": "",
              "_DESCRIPTION": "",
              "_ORIGIN": "Assigned",
              "_ORDER": "115",
              "_Comments": ""
            }
          ]
        },
        "KEYVARIABLES": {
          "children": [
            {
              "_NAME": "STUDYID"
            },
            {
              "_NAME": "USUBJID"
            },
            {
              "_NAME": "EXTPTNUM"
            },
            {
              "_NAME": "EXTPT"
            },
            {
              "_NAME": "EXSTDTC"
            },
            {
              "_NAME": "EXTRT"
            }
          ]
        },
        "_CODE": "EX",
        "_NAME": "Exposure",
        "_STRUCTURE": "One record per constant dosing interval per subject",
        "_CLASS": "Interventions",
        "_DESCRIPTION": ""
      },
      {
        "VARIABLES": {
          "children": [
            {
              "_NAME": "STUDYID",
              "_LABEL": "Study Identifier",
              "_TYPE": "Char",
              "_LENGTH": "20",
              "_ROLE": "Identifier",
              "_CORE": "Req",
              "_CONTROLLED": "",
              "_DESCRIPTION": "",
              "_ORIGIN": "Assigned",
              "_ORDER": "1",
              "_Comments": ""
            },
            {
              "_NAME": "DOMAIN",
              "_LABEL": "Domain Abbreviation",
              "_TYPE": "Char",
              "_LENGTH": "2",
              "_ROLE": "Identifier",
              "_CORE": "Req",
              "_CONTROLLED": "",
              "_DESCRIPTION": "",
              "_ORIGIN": "Assigned",
              "_ORDER": "2",
              "_Comments": ""
            },
            {
              "_NAME": "USUBJID",
              "_LABEL": "Unique Subject Identifier",
              "_TYPE": "Char",
              "_LENGTH": "25",
              "_ROLE": "Identifier",
              "_CORE": "Req",
              "_CONTROLLED": "",
              "_DESCRIPTION": "",
              "_ORIGIN": "Derived",
              "_ORDER": "4",
              "_Comments": "Concatenate STUDYID, SITEID and SUBJID, separated by \"-\"."
            },
            {
              "_NAME": "SUSEQ",
              "_LABEL": "Sequence Number",
              "_TYPE": "Num",
              "_LENGTH": "8",
              "_ROLE": "Identifier",
              "_CORE": "Req",
              "_CONTROLLED": "",
              "_DESCRIPTION": "",
              "_ORIGIN": "Derived",
              "_ORDER": "8",
              "_Comments": "Sort by the key variables specified in the domain list. Assign SUSEQ=1 to the first record and increment SUSEQ by 1 for each additional record so that SUSEQ is unique for each record within a USUBJID."
            },
            {
              "_NAME": "SUGRPID",
              "_LABEL": "Group ID",
              "_TYPE": "Char",
              "_LENGTH": "20",
              "_ROLE": "Identifier",
              "_CORE": "Perm",
              "_CONTROLLED": "",
              "_DESCRIPTION": "",
              "_ORIGIN": "Assigned",
              "_ORDER": "9",
              "_Comments": ""
            },
            {
              "_NAME": "SUSPID",
              "_LABEL": "Sponsor-Defined Identifier",
              "_TYPE": "Char",
              "_LENGTH": "20",
              "_ROLE": "Identifier",
              "_CORE": "Perm",
              "_CONTROLLED": "",
              "_DESCRIPTION": "",
              "_ORIGIN": "Assigned",
              "_ORDER": "11",
              "_Comments": ""
            },
            {
              "_NAME": "SUTRT",
              "_LABEL": "Reported Name of Substance",
              "_TYPE": "Char",
              "_LENGTH": "200",
              "_ROLE": "Topic",
              "_CORE": "Req",
              "_CONTROLLED": "",
              "_DESCRIPTION": "",
              "_ORIGIN": "Assigned",
              "_ORDER": "20",
              "_Comments": ""
            },
            {
              "_NAME": "SUMODIFY",
              "_LABEL": "Modified Substance Name",
              "_TYPE": "Char",
              "_LENGTH": "200",
              "_ROLE": "Synonym Qualifier",
              "_CORE": "Perm",
              "_CONTROLLED": "",
              "_DESCRIPTION": "",
              "_ORIGIN": "Assigned",
              "_ORDER": "21",
              "_Comments": ""
            },
            {
              "_NAME": "SUDECOD",
              "_LABEL": "Standardized Substance Name",
              "_TYPE": "Char",
              "_LENGTH": "200",
              "_ROLE": "Synonym Qualifier",
              "_CORE": "Perm",
              "_CONTROLLED": "",
              "_DESCRIPTION": "",
              "_ORIGIN": "Assigned",
              "_ORDER": "22",
              "_Comments": ""
            },
            {
              "_NAME": "SUCAT",
              "_LABEL": "Category for Substance Use",
              "_TYPE": "Char",
              "_LENGTH": "200",
              "_ROLE": "Grouping Qualifier",
              "_CORE": "Perm",
              "_CONTROLLED": "",
              "_DESCRIPTION": "",
              "_ORIGIN": "Assigned",
              "_ORDER": "23",
              "_Comments": ""
            },
            {
              "_NAME": "SUSCAT",
              "_LABEL": "Subcategory for Substance Use",
              "_TYPE": "Char",
              "_LENGTH": "200",
              "_ROLE": "Grouping Qualifier",
              "_CORE": "Perm",
              "_CONTROLLED": "",
              "_DESCRIPTION": "",
              "_ORIGIN": "Assigned",
              "_ORDER": "24",
              "_Comments": ""
            },
            {
              "_NAME": "SUPRESP",
              "_LABEL": "SU Pre-Specified",
              "_TYPE": "Char",
              "_LENGTH": "1",
              "_ROLE": "Record Qualifier",
              "_CORE": "Perm",
              "_CONTROLLED": "(NY)",
              "_DESCRIPTION": "",
              "_ORIGIN": "Assigned",
              "_ORDER": "25",
              "_Comments": ""
            },
            {
              "_NAME": "SUOCCUR",
              "_LABEL": "SU Occurrence",
              "_TYPE": "Char",
              "_LENGTH": "1",
              "_ROLE": "Record Qualifier",
              "_CORE": "Perm",
              "_CONTROLLED": "(NY)",
              "_DESCRIPTION": "",
              "_ORIGIN": "Assigned",
              "_ORDER": "26",
              "_Comments": ""
            },
            {
              "_NAME": "SUSTAT",
              "_LABEL": "Completion Status",
              "_TYPE": "Char",
              "_LENGTH": "8",
              "_ROLE": "Record Qualifier",
              "_CORE": "Perm",
              "_CONTROLLED": "(ND)",
              "_DESCRIPTION": "",
              "_ORIGIN": "Assigned",
              "_ORDER": "27",
              "_Comments": ""
            },
            {
              "_NAME": "SUREASND",
              "_LABEL": "Reason Substance Use Not Collected",
              "_TYPE": "Char",
              "_LENGTH": "200",
              "_ROLE": "Record Qualifier",
              "_CORE": "Perm",
              "_CONTROLLED": "",
              "_DESCRIPTION": "",
              "_ORIGIN": "Assigned",
              "_ORDER": "28",
              "_Comments": ""
            },
            {
              "_NAME": "SUCLAS",
              "_LABEL": "Substance Use Class",
              "_TYPE": "Char",
              "_LENGTH": "200",
              "_ROLE": "Variable Qualifier",
              "_CORE": "Perm",
              "_CONTROLLED": "",
              "_DESCRIPTION": "",
              "_ORIGIN": "Assigned",
              "_ORDER": "30",
              "_Comments": ""
            },
            {
              "_NAME": "SUCLASCD",
              "_LABEL": "Substance Use Class Code",
              "_TYPE": "Char",
              "_LENGTH": "8",
              "_ROLE": "Variable Qualifier",
              "_CORE": "Perm",
              "_CONTROLLED": "",
              "_DESCRIPTION": "",
              "_ORIGIN": "Assigned",
              "_ORDER": "31",
              "_Comments": ""
            },
            {
              "_NAME": "SUDOSE",
              "_LABEL": "Substance Use Consumption",
              "_TYPE": "Num",
              "_LENGTH": "8",
              "_ROLE": "Record Qualifier",
              "_CORE": "Perm",
              "_CONTROLLED": "",
              "_DESCRIPTION": "",
              "_ORIGIN": "Assigned",
              "_ORDER": "32",
              "_Comments": ""
            },
            {
              "_NAME": "SUDOSTXT",
              "_LABEL": "Substance Use Consumption Text",
              "_TYPE": "Char",
              "_LENGTH": "200",
              "_ROLE": "Record Qualifier",
              "_CORE": "Perm",
              "_CONTROLLED": "",
              "_DESCRIPTION": "",
              "_ORIGIN": "Assigned",
              "_ORDER": "33",
              "_Comments": ""
            },
            {
              "_NAME": "SUDOSU",
              "_LABEL": "Consumption Units",
              "_TYPE": "Char",
              "_LENGTH": "20",
              "_ROLE": "Variable Qualifier",
              "_CORE": "Perm",
              "_CONTROLLED": "(UNIT)",
              "_DESCRIPTION": "",
              "_ORIGIN": "Assigned",
              "_ORDER": "34",
              "_Comments": ""
            },
            {
              "_NAME": "SUDOSFRM",
              "_LABEL": "Dose Form",
              "_TYPE": "Char",
              "_LENGTH": "200",
              "_ROLE": "Record Qualifier",
              "_CORE": "Perm",
              "_CONTROLLED": "",
              "_DESCRIPTION": "",
              "_ORIGIN": "Assigned",
              "_ORDER": "35",
              "_Comments": ""
            },
            {
              "_NAME": "SUDOSFRQ",
              "_LABEL": "Use Frequency Per Interval",
              "_TYPE": "Char",
              "_LENGTH": "50",
              "_ROLE": "Variable Qualifier",
              "_CORE": "Perm",
              "_CONTROLLED": "(FREQ)",
              "_DESCRIPTION": "",
              "_ORIGIN": "Assigned",
              "_ORDER": "36",
              "_Comments": ""
            },
            {
              "_NAME": "SUDOSTOT",
              "_LABEL": "Total Daily Consumption",
              "_TYPE": "Num",
              "_LENGTH": "8",
              "_ROLE": "Record Qualifier",
              "_CORE": "Perm",
              "_CONTROLLED": "",
              "_DESCRIPTION": "",
              "_ORIGIN": "Assigned",
              "_ORDER": "37",
              "_Comments": ""
            },
            {
              "_NAME": "SUROUTE",
              "_LABEL": "Route of Administration",
              "_TYPE": "Char",
              "_LENGTH": "50",
              "_ROLE": "Variable Qualifier",
              "_CORE": "Perm",
              "_CONTROLLED": "(ROUTE)",
              "_DESCRIPTION": "",
              "_ORIGIN": "Assigned",
              "_ORDER": "39",
              "_Comments": ""
            },
            {
              "_NAME": "SUSTDTC",
              "_LABEL": "Start Date/Time of Substance Use",
              "_TYPE": "Char",
              "_LENGTH": "20",
              "_ROLE": "Timing",
              "_CORE": "Perm",
              "_CONTROLLED": "ISO 8601",
              "_DESCRIPTION": "",
              "_ORIGIN": "Assigned",
              "_ORDER": "106",
              "_Comments": ""
            },
            {
              "_NAME": "SUENDTC",
              "_LABEL": "End Date/Time of Substance Use",
              "_TYPE": "Char",
              "_LENGTH": "20",
              "_ROLE": "Timing",
              "_CORE": "Perm",
              "_CONTROLLED": "ISO 8601",
              "_DESCRIPTION": "",
              "_ORIGIN": "Assigned",
              "_ORDER": "107",
              "_Comments": ""
            },
            {
              "_NAME": "SUSTDY",
              "_LABEL": "Study Day of Start of Substance Use",
              "_TYPE": "Num",
              "_LENGTH": "8",
              "_ROLE": "Timing",
              "_CORE": "Perm",
              "_CONTROLLED": "",
              "_DESCRIPTION": "",
              "_ORIGIN": "Derived",
              "_ORDER": "109",
              "_Comments": "Relative study day between <SUSTDTC> and DM.RFSTDTC. Add 1 if the difference is greater than or equal to 0."
            },
            {
              "_NAME": "SUENDY",
              "_LABEL": "Study Day of End of Substance Use",
              "_TYPE": "Num",
              "_LENGTH": "8",
              "_ROLE": "Timing",
              "_CORE": "Perm",
              "_CONTROLLED": "",
              "_DESCRIPTION": "",
              "_ORIGIN": "Derived",
              "_ORDER": "110",
              "_Comments": "Relative study day between <SUENDTC> and DM.RFSTDTC. Add 1 if the difference is greater than or equal to 0."
            },
            {
              "_NAME": "SUDUR",
              "_LABEL": "Duration of Substance Use",
              "_TYPE": "Char",
              "_LENGTH": "50",
              "_ROLE": "Timing",
              "_CORE": "Perm",
              "_CONTROLLED": "ISO 8601",
              "_DESCRIPTION": "",
              "_ORIGIN": "Assigned",
              "_ORDER": "111",
              "_Comments": ""
            },
            {
              "_NAME": "SUSTRF",
              "_LABEL": "Start Relative to Reference Period",
              "_TYPE": "Char",
              "_LENGTH": "12",
              "_ROLE": "Timing",
              "_CORE": "Perm",
              "_CONTROLLED": "(STENRF)",
              "_DESCRIPTION": "",
              "_ORIGIN": "Assigned",
              "_ORDER": "117",
              "_Comments": ""
            },
            {
              "_NAME": "SUENRF",
              "_LABEL": "End Relative to Reference Period",
              "_TYPE": "Char",
              "_LENGTH": "12",
              "_ROLE": "Timing",
              "_CORE": "Perm",
              "_CONTROLLED": "(STENRF)",
              "_DESCRIPTION": "",
              "_ORIGIN": "Assigned",
              "_ORDER": "118",
              "_Comments": ""
            },
            {
              "_NAME": "SUSTRTPT",
              "_LABEL": "Start Relative to Reference Time Point",
              "_TYPE": "Char",
              "_LENGTH": "12",
              "_ROLE": "Timing",
              "_CORE": "Perm",
              "_CONTROLLED": "(STENRF)",
              "_DESCRIPTION": "",
              "_ORIGIN": "Assigned",
              "_ORDER": "120",
              "_Comments": ""
            },
            {
              "_NAME": "SUSTTPT",
              "_LABEL": "Start Reference Time Point",
              "_TYPE": "Char",
              "_LENGTH": "200",
              "_ROLE": "Timing",
              "_CORE": "Perm",
              "_CONTROLLED": "",
              "_DESCRIPTION": "",
              "_ORIGIN": "Assigned",
              "_ORDER": "121",
              "_Comments": ""
            },
            {
              "_NAME": "SUENRTPT",
              "_LABEL": "End Relative to Reference Time Point",
              "_TYPE": "Char",
              "_LENGTH": "12",
              "_ROLE": "Timing",
              "_CORE": "Perm",
              "_CONTROLLED": "(STENRF)",
              "_DESCRIPTION": "",
              "_ORIGIN": "Assigned",
              "_ORDER": "122",
              "_Comments": ""
            },
            {
              "_NAME": "SUENTPT",
              "_LABEL": "End Reference Time Point",
              "_TYPE": "Char",
              "_LENGTH": "200",
              "_ROLE": "Timing",
              "_CORE": "Perm",
              "_CONTROLLED": "",
              "_DESCRIPTION": "",
              "_ORIGIN": "Assigned",
              "_ORDER": "123",
              "_Comments": ""
            }
          ]
        },
        "KEYVARIABLES": {
          "children": [
            {
              "_NAME": "STUDYID"
            },
            {
              "_NAME": "USUBJID"
            },
            {
              "_NAME": "SUSTDTC"
            },
            {
              "_NAME": "SUTRT"
            }
          ]
        },
        "_CODE": "SU",
        "_NAME": "Substance Use",
        "_STRUCTURE": "One record per substance type per reported occurrence per subject",
        "_CLASS": "Interventions",
        "_DESCRIPTION": ""
      },
      {
        "VARIABLES": {
          "children": [
            {
              "_NAME": "STUDYID",
              "_LABEL": "Study Identifier",
              "_TYPE": "Char",
              "_LENGTH": "20",
              "_ROLE": "Identifier",
              "_CORE": "Req",
              "_CONTROLLED": "",
              "_DESCRIPTION": "",
              "_ORIGIN": "Assigned",
              "_ORDER": "1",
              "_Comments": ""
            },
            {
              "_NAME": "DOMAIN",
              "_LABEL": "Domain Abbreviation",
              "_TYPE": "Char",
              "_LENGTH": "2",
              "_ROLE": "Identifier",
              "_CORE": "Req",
              "_CONTROLLED": "",
              "_DESCRIPTION": "",
              "_ORIGIN": "Assigned",
              "_ORDER": "2",
              "_Comments": ""
            },
            {
              "_NAME": "USUBJID",
              "_LABEL": "Unique Subject Identifier",
              "_TYPE": "Char",
              "_LENGTH": "25",
              "_ROLE": "Identifier",
              "_CORE": "Req",
              "_CONTROLLED": "",
              "_DESCRIPTION": "",
              "_ORIGIN": "Derived",
              "_ORDER": "4",
              "_Comments": "Concatenate STUDYID, SITEID and SUBJID, separated by \"-\"."
            },
            {
              "_NAME": "MLSEQ",
              "_LABEL": "Sequence Number",
              "_TYPE": "Num",
              "_LENGTH": "8",
              "_ROLE": "Identifier",
              "_CORE": "Req",
              "_CONTROLLED": "",
              "_DESCRIPTION": "",
              "_ORIGIN": "Derived",
              "_ORDER": "8",
              "_Comments": "Sort by the key variables specified in the domain list. Assign MLSEQ=1 to the first record and increment MLSEQ by 1 for each additional record so that MLSEQ is unique for each record within a USUBJID."
            },
            {
              "_NAME": "MLTRT",
              "_LABEL": "Name of Scheduled Meal",
              "_TYPE": "Char",
              "_LENGTH": "200",
              "_ROLE": "Topic",
              "_CORE": "",
              "_CONTROLLED": "",
              "_DESCRIPTION": "",
              "_ORIGIN": "Assigned",
              "_ORDER": "20",
              "_Comments": ""
            },
            {
              "_NAME": "MLSTAT",
              "_LABEL": "Completion Status",
              "_TYPE": "Char",
              "_LENGTH": "8",
              "_ROLE": "Record Qualifier",
              "_CORE": "",
              "_CONTROLLED": "ND",
              "_DESCRIPTION": "",
              "_ORIGIN": "Assigned",
              "_ORDER": "27",
              "_Comments": ""
            },
            {
              "_NAME": "MLDOSTXT",
              "_LABEL": "Amount of Meal Consumed",
              "_TYPE": "Char",
              "_LENGTH": "200",
              "_ROLE": "Record Qualifier",
              "_CORE": "",
              "_CONTROLLED": "",
              "_DESCRIPTION": "",
              "_ORIGIN": "Assigned",
              "_ORDER": "33",
              "_Comments": ""
            },
            {
              "_NAME": "VISITNUM",
              "_LABEL": "Visit Number",
              "_TYPE": "Num",
              "_LENGTH": "8",
              "_ROLE": "Timing",
              "_CORE": "",
              "_CONTROLLED": "",
              "_DESCRIPTION": "",
              "_ORIGIN": "Assigned",
              "_ORDER": "100",
              "_Comments": ""
            },
            {
              "_NAME": "VISIT",
              "_LABEL": "Visit Name",
              "_TYPE": "Char",
              "_LENGTH": "200",
              "_ROLE": "Timing",
              "_CORE": "",
              "_CONTROLLED": "",
              "_DESCRIPTION": "",
              "_ORIGIN": "Assigned",
              "_ORDER": "101",
              "_Comments": ""
            },
            {
              "_NAME": "VISITDY",
              "_LABEL": "Planned Study Day of Visit",
              "_TYPE": "Num",
              "_LENGTH": "8",
              "_ROLE": "Timing",
              "_CORE": "",
              "_CONTROLLED": "",
              "_DESCRIPTION": "",
              "_ORIGIN": "Protocol",
              "_ORDER": "102",
              "_Comments": ""
            },
            {
              "_NAME": "MLSTDTC",
              "_LABEL": "Start Date/Time of the Meal",
              "_TYPE": "Char",
              "_LENGTH": "20",
              "_ROLE": "Timing",
              "_CORE": "",
              "_CONTROLLED": "",
              "_DESCRIPTION": "",
              "_ORIGIN": "Assigned",
              "_ORDER": "106",
              "_Comments": ""
            },
            {
              "_NAME": "MLENDTC",
              "_LABEL": "End Date/Time of the Meal",
              "_TYPE": "Char",
              "_LENGTH": "20",
              "_ROLE": "Timing",
              "_CORE": "",
              "_CONTROLLED": "",
              "_DESCRIPTION": "",
              "_ORIGIN": "Assigned",
              "_ORDER": "107",
              "_Comments": ""
            },
            {
              "_NAME": "MLSTDY",
              "_LABEL": "Study Day of Start of Meal",
              "_TYPE": "Num",
              "_LENGTH": "8",
              "_ROLE": "Timing",
              "_CORE": "",
              "_CONTROLLED": "",
              "_DESCRIPTION": "",
              "_ORIGIN": "Derived",
              "_ORDER": "109",
              "_Comments": "Relative study day between <MLSTDTC> and DM.RFSTDTC. Add 1 if the difference is greater than or equal to 0."
            },
            {
              "_NAME": "MLENDY",
              "_LABEL": "Study Day of End of Meal",
              "_TYPE": "Num",
              "_LENGTH": "8",
              "_ROLE": "Timing",
              "_CORE": "",
              "_CONTROLLED": "",
              "_DESCRIPTION": "",
              "_ORIGIN": "Derived",
              "_ORDER": "110",
              "_Comments": "Relative study day between <MLENDTC> and DM.RFSTDTC. Add 1 if the difference is greater than or equal to 0."
            }
          ]
        },
        "KEYVARIABLES": {
          "children": [
            {
              "_NAME": "STUDYID"
            },
            {
              "_NAME": "USUBJID"
            },
            {
              "_NAME": "MLSTDTC"
            },
            {
              "_NAME": "MLTRT"
            }
          ]
        },
        "_CODE": "ML",
        "_NAME": "Meal Data",
        "_STRUCTURE": "One record per subject per meal time",
        "_CLASS": "Interventions",
        "_DESCRIPTION": ""
      },
      {
        "VARIABLES": {
          "children": [
            {
              "_NAME": "STUDYID",
              "_LABEL": "Study Identifier",
              "_TYPE": "Char",
              "_LENGTH": "20",
              "_ROLE": "Identifier",
              "_CORE": "Req",
              "_CONTROLLED": "",
              "_DESCRIPTION": "",
              "_ORIGIN": "Assigned",
              "_ORDER": "1",
              "_Comments": ""
            },
            {
              "_NAME": "DOMAIN",
              "_LABEL": "Domain Abbreviation",
              "_TYPE": "Char",
              "_LENGTH": "2",
              "_ROLE": "Identifier",
              "_CORE": "Req",
              "_CONTROLLED": "",
              "_DESCRIPTION": "",
              "_ORIGIN": "Assigned",
              "_ORDER": "2",
              "_Comments": ""
            },
            {
              "_NAME": "USUBJID",
              "_LABEL": "Unique Subject Identifier",
              "_TYPE": "Char",
              "_LENGTH": "25",
              "_ROLE": "Identifier",
              "_CORE": "Req",
              "_CONTROLLED": "",
              "_DESCRIPTION": "",
              "_ORIGIN": "Derived",
              "_ORDER": "4",
              "_Comments": "Concatenate STUDYID, SITEID and SUBJID, separated by \"-\"."
            },
            {
              "_NAME": "AESEQ",
              "_LABEL": "Sequence Number",
              "_TYPE": "Num",
              "_LENGTH": "8",
              "_ROLE": "Identifier",
              "_CORE": "Req",
              "_CONTROLLED": "",
              "_DESCRIPTION": "",
              "_ORIGIN": "Derived",
              "_ORDER": "8",
              "_Comments": "Sort by the key variables specified in the domain list. Assign AESEQ=1 to the first record and increment AESEQ by 1 for each additional record so that AESEQ is unique for each record within a USUBJID."
            },
            {
              "_NAME": "AEGRPID",
              "_LABEL": "Group ID",
              "_TYPE": "Char",
              "_LENGTH": "20",
              "_ROLE": "Identifier",
              "_CORE": "Perm",
              "_CONTROLLED": "",
              "_DESCRIPTION": "",
              "_ORIGIN": "Assigned",
              "_ORDER": "9",
              "_Comments": ""
            },
            {
              "_NAME": "AEREFID",
              "_LABEL": "Reference ID",
              "_TYPE": "Char",
              "_LENGTH": "20",
              "_ROLE": "Identifier",
              "_CORE": "Perm",
              "_CONTROLLED": "",
              "_DESCRIPTION": "",
              "_ORIGIN": "Assigned",
              "_ORDER": "10",
              "_Comments": ""
            },
            {
              "_NAME": "AESPID",
              "_LABEL": "Sponsor-Defined Identifier",
              "_TYPE": "Char",
              "_LENGTH": "20",
              "_ROLE": "Identifier",
              "_CORE": "Perm",
              "_CONTROLLED": "",
              "_DESCRIPTION": "",
              "_ORIGIN": "Assigned",
              "_ORDER": "11",
              "_Comments": ""
            },
            {
              "_NAME": "AETERM",
              "_LABEL": "Reported Term for the Adverse Event",
              "_TYPE": "Char",
              "_LENGTH": "200",
              "_ROLE": "Topic",
              "_CORE": "Req",
              "_CONTROLLED": "",
              "_DESCRIPTION": "",
              "_ORIGIN": "Assigned",
              "_ORDER": "20",
              "_Comments": ""
            },
            {
              "_NAME": "AEMODIFY",
              "_LABEL": "Modified Reported Term",
              "_TYPE": "Char",
              "_LENGTH": "200",
              "_ROLE": "Synonym Qualifier",
              "_CORE": "Perm",
              "_CONTROLLED": "",
              "_DESCRIPTION": "",
              "_ORIGIN": "Assigned",
              "_ORDER": "21",
              "_Comments": ""
            },
            {
              "_NAME": "AELLT",
              "_LABEL": "Lowest Level Term",
              "_TYPE": "Char",
              "_LENGTH": "200",
              "_ROLE": "Variable Qualifier",
              "_CORE": "Exp",
              "_CONTROLLED": "",
              "_DESCRIPTION": "",
              "_ORIGIN": "Assigned",
              "_ORDER": "22",
              "_Comments": "MedDRA version 13.1"
            },
            {
              "_NAME": "AELLTCD",
              "_LABEL": "Lowest Level Term Code",
              "_TYPE": "Num",
              "_LENGTH": "8",
              "_ROLE": "Variable Qualifier",
              "_CORE": "Exp",
              "_CONTROLLED": "",
              "_DESCRIPTION": "",
              "_ORIGIN": "Assigned",
              "_ORDER": "23",
              "_Comments": "MedDRA version 13.1"
            },
            {
              "_NAME": "AEDECOD",
              "_LABEL": "Dictionary-Derived Term",
              "_TYPE": "Char",
              "_LENGTH": "200",
              "_ROLE": "Synonym Qualifier",
              "_CORE": "Req",
              "_CONTROLLED": "(EVENDICT)",
              "_DESCRIPTION": "",
              "_ORIGIN": "Assigned",
              "_ORDER": "24",
              "_Comments": "MedDRA version 13.1"
            },
            {
              "_NAME": "AEPTCD",
              "_LABEL": "Preferred Term Code",
              "_TYPE": "Num",
              "_LENGTH": "8",
              "_ROLE": "Variable Qualifier",
              "_CORE": "Exp",
              "_CONTROLLED": "",
              "_DESCRIPTION": "",
              "_ORIGIN": "Assigned",
              "_ORDER": "25",
              "_Comments": "MedDRA version 13.1"
            },
            {
              "_NAME": "AEHLT",
              "_LABEL": "High Level Term",
              "_TYPE": "Char",
              "_LENGTH": "200",
              "_ROLE": "Variable Qualifier",
              "_CORE": "Exp",
              "_CONTROLLED": "",
              "_DESCRIPTION": "",
              "_ORIGIN": "Assigned",
              "_ORDER": "26",
              "_Comments": "MedDRA version 13.1"
            },
            {
              "_NAME": "AEHLTCD",
              "_LABEL": "High Level Term Code",
              "_TYPE": "Num",
              "_LENGTH": "8",
              "_ROLE": "Variable Qualifier",
              "_CORE": "Exp",
              "_CONTROLLED": "",
              "_DESCRIPTION": "",
              "_ORIGIN": "Assigned",
              "_ORDER": "27",
              "_Comments": "MedDRA version 13.1"
            },
            {
              "_NAME": "AEHLGT",
              "_LABEL": "High Level Group Term",
              "_TYPE": "Char",
              "_LENGTH": "200",
              "_ROLE": "Variable Qualifier",
              "_CORE": "Exp",
              "_CONTROLLED": "",
              "_DESCRIPTION": "",
              "_ORIGIN": "Assigned",
              "_ORDER": "28",
              "_Comments": "MedDRA version 13.1"
            },
            {
              "_NAME": "AEHLGTCD",
              "_LABEL": "High Level Group Term Code",
              "_TYPE": "Num",
              "_LENGTH": "8",
              "_ROLE": "Variable Qualifier",
              "_CORE": "Exp",
              "_CONTROLLED": "",
              "_DESCRIPTION": "",
              "_ORIGIN": "Assigned",
              "_ORDER": "29",
              "_Comments": "MedDRA version 13.1"
            },
            {
              "_NAME": "AECAT",
              "_LABEL": "Category for Adverse Event",
              "_TYPE": "Char",
              "_LENGTH": "200",
              "_ROLE": "Grouping Qualifier",
              "_CORE": "Perm",
              "_CONTROLLED": "",
              "_DESCRIPTION": "",
              "_ORIGIN": "Assigned",
              "_ORDER": "30",
              "_Comments": ""
            },
            {
              "_NAME": "AESCAT",
              "_LABEL": "Subcategory for Adverse Event",
              "_TYPE": "Char",
              "_LENGTH": "200",
              "_ROLE": "Grouping Qualifier",
              "_CORE": "Perm",
              "_CONTROLLED": "",
              "_DESCRIPTION": "",
              "_ORIGIN": "Assigned",
              "_ORDER": "31",
              "_Comments": ""
            },
            {
              "_NAME": "AEPRESP",
              "_LABEL": "Pre-Specified Adverse Event",
              "_TYPE": "Char",
              "_LENGTH": "1",
              "_ROLE": "Record Qualifier",
              "_CORE": "Perm",
              "_CONTROLLED": "(NY)",
              "_DESCRIPTION": "",
              "_ORIGIN": "Assigned",
              "_ORDER": "32",
              "_Comments": ""
            },
            {
              "_NAME": "AEBODSYS",
              "_LABEL": "Body System or Organ Class",
              "_TYPE": "Char",
              "_LENGTH": "200",
              "_ROLE": "Record Qualifier",
              "_CORE": "Exp",
              "_CONTROLLED": "",
              "_DESCRIPTION": "",
              "_ORIGIN": "Assigned",
              "_ORDER": "36",
              "_Comments": "MedDRA version 13.1"
            },
            {
              "_NAME": "AEBDSYCD",
              "_LABEL": "Body System or Organ Class Code",
              "_TYPE": "Num",
              "_LENGTH": "8",
              "_ROLE": "Variable Qualifier",
              "_CORE": "Exp",
              "_CONTROLLED": "",
              "_DESCRIPTION": "",
              "_ORIGIN": "Assigned",
              "_ORDER": "37",
              "_Comments": "MedDRA version 13.1"
            },
            {
              "_NAME": "AESOC",
              "_LABEL": "Primary System Organ Class",
              "_TYPE": "Char",
              "_LENGTH": "200",
              "_ROLE": "Variable Qualifier",
              "_CORE": "Exp",
              "_CONTROLLED": "",
              "_DESCRIPTION": "",
              "_ORIGIN": "Assigned",
              "_ORDER": "38",
              "_Comments": "MedDRA version 13.1"
            },
            {
              "_NAME": "AESOCCD",
              "_LABEL": "Primary System Organ Class Code",
              "_TYPE": "Num",
              "_LENGTH": "8",
              "_ROLE": "Variable Qualifier",
              "_CORE": "Exp",
              "_CONTROLLED": "",
              "_DESCRIPTION": "",
              "_ORIGIN": "Assigned",
              "_ORDER": "39",
              "_Comments": "MedDRA version 13.1"
            },
            {
              "_NAME": "AELOC",
              "_LABEL": "Location of Event",
              "_TYPE": "Char",
              "_LENGTH": "200",
              "_ROLE": "Record Qualifier",
              "_CORE": "Perm",
              "_CONTROLLED": "(LOC)",
              "_DESCRIPTION": "",
              "_ORIGIN": "Assigned",
              "_ORDER": "40",
              "_Comments": ""
            },
            {
              "_NAME": "AESEV",
              "_LABEL": "Severity/Intensity",
              "_TYPE": "Char",
              "_LENGTH": "8",
              "_ROLE": "Record Qualifier",
              "_CORE": "Perm",
              "_CONTROLLED": "(AESEV)",
              "_DESCRIPTION": "",
              "_ORIGIN": "Assigned",
              "_ORDER": "41",
              "_Comments": ""
            },
            {
              "_NAME": "AESER",
              "_LABEL": "Serious Event",
              "_TYPE": "Char",
              "_LENGTH": "1",
              "_ROLE": "Record Qualifier",
              "_CORE": "Exp",
              "_CONTROLLED": "(NY)",
              "_DESCRIPTION": "",
              "_ORIGIN": "Assigned",
              "_ORDER": "42",
              "_Comments": ""
            },
            {
              "_NAME": "AEACN",
              "_LABEL": "Action Taken with Study Treatment",
              "_TYPE": "Char",
              "_LENGTH": "200",
              "_ROLE": "Record Qualifier",
              "_CORE": "Exp",
              "_CONTROLLED": "(ACN)",
              "_DESCRIPTION": "",
              "_ORIGIN": "Assigned",
              "_ORDER": "43",
              "_Comments": ""
            },
            {
              "_NAME": "AEACNOTH",
              "_LABEL": "Other Action Taken",
              "_TYPE": "Char",
              "_LENGTH": "200",
              "_ROLE": "Record Qualifier",
              "_CORE": "Perm",
              "_CONTROLLED": "",
              "_DESCRIPTION": "",
              "_ORIGIN": "Assigned",
              "_ORDER": "44",
              "_Comments": ""
            },
            {
              "_NAME": "AEREL",
              "_LABEL": "Causality",
              "_TYPE": "Char",
              "_LENGTH": "50",
              "_ROLE": "Record Qualifier",
              "_CORE": "Exp",
              "_CONTROLLED": "",
              "_DESCRIPTION": "",
              "_ORIGIN": "Assigned",
              "_ORDER": "45",
              "_Comments": ""
            },
            {
              "_NAME": "AERELNST",
              "_LABEL": "Relationship to Non-Study Treatment",
              "_TYPE": "Char",
              "_LENGTH": "200",
              "_ROLE": "Record Qualifier",
              "_CORE": "Perm",
              "_CONTROLLED": "",
              "_DESCRIPTION": "",
              "_ORIGIN": "Assigned",
              "_ORDER": "46",
              "_Comments": ""
            },
            {
              "_NAME": "AEPATT",
              "_LABEL": "Pattern of Adverse Event",
              "_TYPE": "Char",
              "_LENGTH": "50",
              "_ROLE": "Record Qualifier",
              "_CORE": "Perm",
              "_CONTROLLED": "",
              "_DESCRIPTION": "",
              "_ORIGIN": "Assigned",
              "_ORDER": "47",
              "_Comments": ""
            },
            {
              "_NAME": "AEOUT",
              "_LABEL": "Outcome of Adverse Event",
              "_TYPE": "Char",
              "_LENGTH": "200",
              "_ROLE": "Record Qualifier",
              "_CORE": "Perm",
              "_CONTROLLED": "(OUT)",
              "_DESCRIPTION": "",
              "_ORIGIN": "Assigned",
              "_ORDER": "48",
              "_Comments": ""
            },
            {
              "_NAME": "AESCAN",
              "_LABEL": "Involves Cancer",
              "_TYPE": "Char",
              "_LENGTH": "1",
              "_ROLE": "Record Qualifier",
              "_CORE": "Perm",
              "_CONTROLLED": "(NY)",
              "_DESCRIPTION": "",
              "_ORIGIN": "Assigned",
              "_ORDER": "49",
              "_Comments": ""
            },
            {
              "_NAME": "AESCONG",
              "_LABEL": "Congenital Anomaly or Birth Defect",
              "_TYPE": "Char",
              "_LENGTH": "1",
              "_ROLE": "Record Qualifier",
              "_CORE": "Perm",
              "_CONTROLLED": "(NY)",
              "_DESCRIPTION": "",
              "_ORIGIN": "Assigned",
              "_ORDER": "50",
              "_Comments": ""
            },
            {
              "_NAME": "AESDISAB",
              "_LABEL": "Persist or Signif Disability/Incapacity",
              "_TYPE": "Char",
              "_LENGTH": "1",
              "_ROLE": "Record Qualifier",
              "_CORE": "Perm",
              "_CONTROLLED": "(NY)",
              "_DESCRIPTION": "",
              "_ORIGIN": "Assigned",
              "_ORDER": "51",
              "_Comments": ""
            },
            {
              "_NAME": "AESDTH",
              "_LABEL": "Results in Death",
              "_TYPE": "Char",
              "_LENGTH": "1",
              "_ROLE": "Record Qualifier",
              "_CORE": "Perm",
              "_CONTROLLED": "(NY)",
              "_DESCRIPTION": "",
              "_ORIGIN": "Assigned",
              "_ORDER": "52",
              "_Comments": ""
            },
            {
              "_NAME": "AESHOSP",
              "_LABEL": "Requires or Prolongs Hospitalization",
              "_TYPE": "Char",
              "_LENGTH": "1",
              "_ROLE": "Record Qualifier",
              "_CORE": "Perm",
              "_CONTROLLED": "(NY)",
              "_DESCRIPTION": "",
              "_ORIGIN": "Assigned",
              "_ORDER": "53",
              "_Comments": ""
            },
            {
              "_NAME": "AESLIFE",
              "_LABEL": "Is Life Threatening",
              "_TYPE": "Char",
              "_LENGTH": "1",
              "_ROLE": "Record Qualifier",
              "_CORE": "Perm",
              "_CONTROLLED": "(NY)",
              "_DESCRIPTION": "",
              "_ORIGIN": "Assigned",
              "_ORDER": "54",
              "_Comments": ""
            },
            {
              "_NAME": "AESOD",
              "_LABEL": "Occurred with Overdose",
              "_TYPE": "Char",
              "_LENGTH": "1",
              "_ROLE": "Record Qualifier",
              "_CORE": "Perm",
              "_CONTROLLED": "(NY)",
              "_DESCRIPTION": "",
              "_ORIGIN": "Assigned",
              "_ORDER": "55",
              "_Comments": ""
            },
            {
              "_NAME": "AESMIE",
              "_LABEL": "Other Medically Important Serious Event",
              "_TYPE": "Char",
              "_LENGTH": "1",
              "_ROLE": "Record Qualifier",
              "_CORE": "Perm",
              "_CONTROLLED": "(NY)",
              "_DESCRIPTION": "",
              "_ORIGIN": "Assigned",
              "_ORDER": "56",
              "_Comments": ""
            },
            {
              "_NAME": "AECONTRT",
              "_LABEL": "Concomitant or Additional Trtmnt Given",
              "_TYPE": "Char",
              "_LENGTH": "1",
              "_ROLE": "Record Qualifier",
              "_CORE": "Perm",
              "_CONTROLLED": "(NY)",
              "_DESCRIPTION": "",
              "_ORIGIN": "Assigned",
              "_ORDER": "57",
              "_Comments": ""
            },
            {
              "_NAME": "AETOXGR",
              "_LABEL": "Standard Toxicity Grade",
              "_TYPE": "Char",
              "_LENGTH": "1",
              "_ROLE": "Record Qualifier",
              "_CORE": "Perm",
              "_CONTROLLED": "",
              "_DESCRIPTION": "",
              "_ORIGIN": "Assigned",
              "_ORDER": "59",
              "_Comments": ""
            },
            {
              "_NAME": "AESTDTC",
              "_LABEL": "Start Date/Time of Adverse Event",
              "_TYPE": "Char",
              "_LENGTH": "20",
              "_ROLE": "Timing",
              "_CORE": "Exp",
              "_CONTROLLED": "ISO 8601",
              "_DESCRIPTION": "",
              "_ORIGIN": "Assigned",
              "_ORDER": "106",
              "_Comments": ""
            },
            {
              "_NAME": "AEENDTC",
              "_LABEL": "End Date/Time of Adverse Event",
              "_TYPE": "Char",
              "_LENGTH": "20",
              "_ROLE": "Timing",
              "_CORE": "Exp",
              "_CONTROLLED": "ISO 8601",
              "_DESCRIPTION": "",
              "_ORIGIN": "Assigned",
              "_ORDER": "107",
              "_Comments": ""
            },
            {
              "_NAME": "AESTDY",
              "_LABEL": "Study Day of Start of Adverse Event",
              "_TYPE": "Num",
              "_LENGTH": "8",
              "_ROLE": "Timing",
              "_CORE": "Perm",
              "_CONTROLLED": "",
              "_DESCRIPTION": "",
              "_ORIGIN": "Derived",
              "_ORDER": "109",
              "_Comments": "Relative study day between <AESTDTC> and DM.RFSTDTC. Add 1 if the difference is greater than or equal to 0."
            },
            {
              "_NAME": "AEENDY",
              "_LABEL": "Study Day of End of Adverse Event",
              "_TYPE": "Num",
              "_LENGTH": "8",
              "_ROLE": "Timing",
              "_CORE": "Perm",
              "_CONTROLLED": "",
              "_DESCRIPTION": "",
              "_ORIGIN": "Derived",
              "_ORDER": "110",
              "_Comments": "Relative study day between <AEENDTC> and DM.RFSTDTC. Add 1 if the difference is greater than or equal to 0."
            },
            {
              "_NAME": "AEDUR",
              "_LABEL": "Duration of Adverse Event",
              "_TYPE": "Char",
              "_LENGTH": "50",
              "_ROLE": "Timing",
              "_CORE": "Perm",
              "_CONTROLLED": "ISO 8601",
              "_DESCRIPTION": "",
              "_ORIGIN": "Assigned",
              "_ORDER": "111",
              "_Comments": ""
            },
            {
              "_NAME": "AEENRF",
              "_LABEL": "End Relative to Reference Period",
              "_TYPE": "Char",
              "_LENGTH": "12",
              "_ROLE": "Timing",
              "_CORE": "Perm",
              "_CONTROLLED": "(STENRF)",
              "_DESCRIPTION": "",
              "_ORIGIN": "Assigned",
              "_ORDER": "118",
              "_Comments": ""
            },
            {
              "_NAME": "AEENRTPT",
              "_LABEL": "End Relative to Reference Time Point",
              "_TYPE": "Char",
              "_LENGTH": "12",
              "_ROLE": "Timing",
              "_CORE": "Perm",
              "_CONTROLLED": "(STENRF)",
              "_DESCRIPTION": "",
              "_ORIGIN": "Assigned",
              "_ORDER": "122",
              "_Comments": ""
            },
            {
              "_NAME": "AEENTPT",
              "_LABEL": "End Reference Time Point",
              "_TYPE": "Char",
              "_LENGTH": "200",
              "_ROLE": "Timing",
              "_CORE": "Perm",
              "_CONTROLLED": "",
              "_DESCRIPTION": "",
              "_ORIGIN": "Assigned",
              "_ORDER": "123",
              "_Comments": ""
            }
          ]
        },
        "KEYVARIABLES": {
          "children": [
            {
              "_NAME": "STUDYID"
            },
            {
              "_NAME": "USUBJID"
            },
            {
              "_NAME": "AESTDTC"
            },
            {
              "_NAME": "AECAT"
            },
            {
              "_NAME": "AETERM"
            }
          ]
        },
        "_CODE": "AE",
        "_NAME": "Adverse Events",
        "_STRUCTURE": "One record per adverse event per subject",
        "_CLASS": "Events",
        "_DESCRIPTION": ""
      },
      {
        "VARIABLES": {
          "children": [
            {
              "_NAME": "STUDYID",
              "_LABEL": "Study Identifier",
              "_TYPE": "Char",
              "_LENGTH": "20",
              "_ROLE": "Identifier",
              "_CORE": "Req",
              "_CONTROLLED": "",
              "_DESCRIPTION": "",
              "_ORIGIN": "Assigned",
              "_ORDER": "1",
              "_Comments": ""
            },
            {
              "_NAME": "DOMAIN",
              "_LABEL": "Domain Abbreviation",
              "_TYPE": "Char",
              "_LENGTH": "2",
              "_ROLE": "Identifier",
              "_CORE": "Req",
              "_CONTROLLED": "",
              "_DESCRIPTION": "",
              "_ORIGIN": "Assigned",
              "_ORDER": "2",
              "_Comments": ""
            },
            {
              "_NAME": "USUBJID",
              "_LABEL": "Unique Subject Identifier",
              "_TYPE": "Char",
              "_LENGTH": "25",
              "_ROLE": "Identifier",
              "_CORE": "Req",
              "_CONTROLLED": "",
              "_DESCRIPTION": "",
              "_ORIGIN": "Derived",
              "_ORDER": "4",
              "_Comments": "Concatenate STUDYID, SITEID and SUBJID, separated by \"-\"."
            },
            {
              "_NAME": "DSSEQ",
              "_LABEL": "Sequence Number",
              "_TYPE": "Num",
              "_LENGTH": "8",
              "_ROLE": "Identifier",
              "_CORE": "Req",
              "_CONTROLLED": "",
              "_DESCRIPTION": "",
              "_ORIGIN": "Derived",
              "_ORDER": "8",
              "_Comments": "Sort by the key variables specified in the domain list. Assign DSSEQ=1 to the first record and increment DSSEQ by 1 for each additional record so that DSSEQ is unique for each record within a USUBJID."
            },
            {
              "_NAME": "DSGRPID",
              "_LABEL": "Group ID",
              "_TYPE": "Char",
              "_LENGTH": "20",
              "_ROLE": "Identifier",
              "_CORE": "Perm",
              "_CONTROLLED": "",
              "_DESCRIPTION": "",
              "_ORIGIN": "Assigned",
              "_ORDER": "9",
              "_Comments": ""
            },
            {
              "_NAME": "DSREFID",
              "_LABEL": "Reference ID",
              "_TYPE": "Char",
              "_LENGTH": "20",
              "_ROLE": "Identifier",
              "_CORE": "Perm",
              "_CONTROLLED": "",
              "_DESCRIPTION": "",
              "_ORIGIN": "Assigned",
              "_ORDER": "10",
              "_Comments": ""
            },
            {
              "_NAME": "DSSPID",
              "_LABEL": "Sponsor-Defined Identifier",
              "_TYPE": "Char",
              "_LENGTH": "20",
              "_ROLE": "Identifier",
              "_CORE": "Perm",
              "_CONTROLLED": "",
              "_DESCRIPTION": "",
              "_ORIGIN": "Assigned",
              "_ORDER": "11",
              "_Comments": ""
            },
            {
              "_NAME": "DSTERM",
              "_LABEL": "Reported Term for the Disposition Event",
              "_TYPE": "Char",
              "_LENGTH": "200",
              "_ROLE": "Topic",
              "_CORE": "Req",
              "_CONTROLLED": "",
              "_DESCRIPTION": "",
              "_ORIGIN": "Assigned",
              "_ORDER": "20",
              "_Comments": ""
            },
            {
              "_NAME": "DSDECOD",
              "_LABEL": "Standardized Disposition Term",
              "_TYPE": "Char",
              "_LENGTH": "200",
              "_ROLE": "Synonym Qualifier",
              "_CORE": "Req",
              "_CONTROLLED": "(NCOMPLT)",
              "_DESCRIPTION": "",
              "_ORIGIN": "Assigned",
              "_ORDER": "24",
              "_Comments": ""
            },
            {
              "_NAME": "DSCAT",
              "_LABEL": "Category for Disposition Event",
              "_TYPE": "Char",
              "_LENGTH": "200",
              "_ROLE": "Grouping Qualifier",
              "_CORE": "Exp",
              "_CONTROLLED": "(DSCAT)",
              "_DESCRIPTION": "",
              "_ORIGIN": "Assigned",
              "_ORDER": "30",
              "_Comments": ""
            },
            {
              "_NAME": "DSSCAT",
              "_LABEL": "Subcategory for Disposition Event",
              "_TYPE": "Char",
              "_LENGTH": "200",
              "_ROLE": "Grouping Qualifier",
              "_CORE": "Perm",
              "_CONTROLLED": "",
              "_DESCRIPTION": "",
              "_ORIGIN": "Assigned",
              "_ORDER": "31",
              "_Comments": ""
            },
            {
              "_NAME": "EPOCH",
              "_LABEL": "Epoch",
              "_TYPE": "Char",
              "_LENGTH": "50",
              "_ROLE": "Timing",
              "_CORE": "Perm",
              "_CONTROLLED": "",
              "_DESCRIPTION": "",
              "_ORIGIN": "Assigned",
              "_ORDER": "104",
              "_Comments": ""
            },
            {
              "_NAME": "DSDTC",
              "_LABEL": "Date/Time of Collection",
              "_TYPE": "Char",
              "_LENGTH": "20",
              "_ROLE": "Timing",
              "_CORE": "Perm",
              "_CONTROLLED": "ISO 8601",
              "_DESCRIPTION": "",
              "_ORIGIN": "Assigned",
              "_ORDER": "105",
              "_Comments": ""
            },
            {
              "_NAME": "DSSTDTC",
              "_LABEL": "Start Date/Time of Disposition Event",
              "_TYPE": "Char",
              "_LENGTH": "20",
              "_ROLE": "Timing",
              "_CORE": "Exp",
              "_CONTROLLED": "ISO 8601",
              "_DESCRIPTION": "",
              "_ORIGIN": "Assigned",
              "_ORDER": "106",
              "_Comments": ""
            },
            {
              "_NAME": "DSDY",
              "_LABEL": "Study Day of Visit/Collection/Exam",
              "_TYPE": "Num",
              "_LENGTH": "8",
              "_ROLE": "Timing",
              "_CORE": "Perm",
              "_CONTROLLED": "",
              "_DESCRIPTION": "",
              "_ORIGIN": "Derived",
              "_ORDER": "108",
              "_Comments": "Relative study day between <DSDTC> and DM.RFSTDTC. Add 1 if the difference is greater than or equal to 0."
            },
            {
              "_NAME": "DSSTDY",
              "_LABEL": "Study Day of Start of Disposition Event",
              "_TYPE": "Num",
              "_LENGTH": "8",
              "_ROLE": "Timing",
              "_CORE": "Perm",
              "_CONTROLLED": "",
              "_DESCRIPTION": "",
              "_ORIGIN": "Derived",
              "_ORDER": "109",
              "_Comments": "Relative study day between <DSSTDTC> and DM.RFSTDTC. Add 1 if the difference is greater than or equal to 0."
            }
          ]
        },
        "KEYVARIABLES": {
          "children": [
            {
              "_NAME": "STUDYID"
            },
            {
              "_NAME": "USUBJID"
            },
            {
              "_NAME": "DSSTDTC"
            },
            {
              "_NAME": "DSCAT"
            },
            {
              "_NAME": "DSDECOD"
            },
            {
              "_NAME": "DSTERM"
            }
          ]
        },
        "_CODE": "DS",
        "_NAME": "Disposition",
        "_STRUCTURE": "One record per disposition status or protocol milestone per subject",
        "_CLASS": "Events",
        "_DESCRIPTION": ""
      },
      {
        "VARIABLES": {
          "children": [
            {
              "_NAME": "STUDYID",
              "_LABEL": "Study Identifier",
              "_TYPE": "Char",
              "_LENGTH": "20",
              "_ROLE": "Identifier",
              "_CORE": "Req",
              "_CONTROLLED": "",
              "_DESCRIPTION": "",
              "_ORIGIN": "Assigned",
              "_ORDER": "1",
              "_Comments": ""
            },
            {
              "_NAME": "DOMAIN",
              "_LABEL": "Domain Abbreviation",
              "_TYPE": "Char",
              "_LENGTH": "2",
              "_ROLE": "Identifier",
              "_CORE": "Req",
              "_CONTROLLED": "",
              "_DESCRIPTION": "",
              "_ORIGIN": "Assigned",
              "_ORDER": "2",
              "_Comments": ""
            },
            {
              "_NAME": "USUBJID",
              "_LABEL": "Unique Subject Identifier",
              "_TYPE": "Char",
              "_LENGTH": "25",
              "_ROLE": "Identifier",
              "_CORE": "Req",
              "_CONTROLLED": "",
              "_DESCRIPTION": "",
              "_ORIGIN": "Derived",
              "_ORDER": "4",
              "_Comments": "Concatenate STUDYID, SITEID and SUBJID, separated by \"-\"."
            },
            {
              "_NAME": "MHSEQ",
              "_LABEL": "Sequence Number",
              "_TYPE": "Num",
              "_LENGTH": "8",
              "_ROLE": "Identifier",
              "_CORE": "Req",
              "_CONTROLLED": "",
              "_DESCRIPTION": "",
              "_ORIGIN": "Derived",
              "_ORDER": "8",
              "_Comments": "Sort by the key variables specified in the domain list. Assign MHSEQ=1 to the first record and increment MHSEQ by 1 for each additional record so that MHSEQ is unique for each record within a USUBJID."
            },
            {
              "_NAME": "MHGRPID",
              "_LABEL": "Group ID",
              "_TYPE": "Char",
              "_LENGTH": "20",
              "_ROLE": "Identifier",
              "_CORE": "Perm",
              "_CONTROLLED": "",
              "_DESCRIPTION": "",
              "_ORIGIN": "Assigned",
              "_ORDER": "9",
              "_Comments": ""
            },
            {
              "_NAME": "MHREFID",
              "_LABEL": "Reference ID",
              "_TYPE": "Char",
              "_LENGTH": "20",
              "_ROLE": "Identifier",
              "_CORE": "Perm",
              "_CONTROLLED": "",
              "_DESCRIPTION": "",
              "_ORIGIN": "Assigned",
              "_ORDER": "10",
              "_Comments": ""
            },
            {
              "_NAME": "MHSPID",
              "_LABEL": "Sponsor-Defined Identifier",
              "_TYPE": "Char",
              "_LENGTH": "20",
              "_ROLE": "Identifier",
              "_CORE": "Perm",
              "_CONTROLLED": "",
              "_DESCRIPTION": "",
              "_ORIGIN": "Assigned",
              "_ORDER": "11",
              "_Comments": ""
            },
            {
              "_NAME": "MHTERM",
              "_LABEL": "Reported Term for the Medical History",
              "_TYPE": "Char",
              "_LENGTH": "200",
              "_ROLE": "Topic",
              "_CORE": "Req",
              "_CONTROLLED": "",
              "_DESCRIPTION": "",
              "_ORIGIN": "Assigned",
              "_ORDER": "20",
              "_Comments": ""
            },
            {
              "_NAME": "MHMODIFY",
              "_LABEL": "Modified Reported Term",
              "_TYPE": "Char",
              "_LENGTH": "200",
              "_ROLE": "Synonym Qualifier",
              "_CORE": "Perm",
              "_CONTROLLED": "",
              "_DESCRIPTION": "",
              "_ORIGIN": "Assigned",
              "_ORDER": "21",
              "_Comments": ""
            },
            {
              "_NAME": "MHLLT",
              "_LABEL": "Lowest Level Term",
              "_TYPE": "Char",
              "_LENGTH": "200",
              "_ROLE": "Variable Qualifier",
              "_CORE": "Perm",
              "_CONTROLLED": "",
              "_DESCRIPTION": "",
              "_ORIGIN": "Assigned",
              "_ORDER": "22",
              "_Comments": "MedDRA version 13.1"
            },
            {
              "_NAME": "MHLLTCD",
              "_LABEL": "Lowest Level Term Code",
              "_TYPE": "Num",
              "_LENGTH": "8",
              "_ROLE": "Variable Qualifier",
              "_CORE": "Perm",
              "_CONTROLLED": "",
              "_DESCRIPTION": "",
              "_ORIGIN": "Assigned",
              "_ORDER": "23",
              "_Comments": "MedDRA version 13.1"
            },
            {
              "_NAME": "MHDECOD",
              "_LABEL": "Dictionary-Derived Term",
              "_TYPE": "Char",
              "_LENGTH": "200",
              "_ROLE": "Synonym Qualifier",
              "_CORE": "Perm",
              "_CONTROLLED": "",
              "_DESCRIPTION": "",
              "_ORIGIN": "Assigned",
              "_ORDER": "24",
              "_Comments": "MedDRA version 13.1"
            },
            {
              "_NAME": "MHPTCD",
              "_LABEL": "Preferred Term Code",
              "_TYPE": "Num",
              "_LENGTH": "8",
              "_ROLE": "Variable Qualifier",
              "_CORE": "Perm",
              "_CONTROLLED": "",
              "_DESCRIPTION": "",
              "_ORIGIN": "Assigned",
              "_ORDER": "25",
              "_Comments": "MedDRA version 13.1"
            },
            {
              "_NAME": "MHHLT",
              "_LABEL": "High Level Term",
              "_TYPE": "Char",
              "_LENGTH": "200",
              "_ROLE": "Variable Qualifier",
              "_CORE": "Perm",
              "_CONTROLLED": "",
              "_DESCRIPTION": "",
              "_ORIGIN": "Assigned",
              "_ORDER": "26",
              "_Comments": "MedDRA version 13.1"
            },
            {
              "_NAME": "MHHLTCD",
              "_LABEL": "High Level Term Code",
              "_TYPE": "Num",
              "_LENGTH": "8",
              "_ROLE": "Variable Qualifier",
              "_CORE": "Perm",
              "_CONTROLLED": "",
              "_DESCRIPTION": "",
              "_ORIGIN": "Assigned",
              "_ORDER": "27",
              "_Comments": "MedDRA version 13.1"
            },
            {
              "_NAME": "MHHLGT",
              "_LABEL": "High Level Group Term",
              "_TYPE": "Char",
              "_LENGTH": "200",
              "_ROLE": "Variable Qualifier",
              "_CORE": "Perm",
              "_CONTROLLED": "",
              "_DESCRIPTION": "",
              "_ORIGIN": "Assigned",
              "_ORDER": "28",
              "_Comments": "MedDRA version 13.1"
            },
            {
              "_NAME": "MHHLGTCD",
              "_LABEL": "High Level Group Term Code",
              "_TYPE": "Num",
              "_LENGTH": "8",
              "_ROLE": "Variable Qualifier",
              "_CORE": "Perm",
              "_CONTROLLED": "",
              "_DESCRIPTION": "",
              "_ORIGIN": "Assigned",
              "_ORDER": "29",
              "_Comments": "MedDRA version 13.1"
            },
            {
              "_NAME": "MHCAT",
              "_LABEL": "Category for Medical History",
              "_TYPE": "Char",
              "_LENGTH": "200",
              "_ROLE": "Grouping Qualifier",
              "_CORE": "Perm",
              "_CONTROLLED": "",
              "_DESCRIPTION": "",
              "_ORIGIN": "Assigned",
              "_ORDER": "30",
              "_Comments": ""
            },
            {
              "_NAME": "MHSCAT",
              "_LABEL": "Subcategory for Medical History",
              "_TYPE": "Char",
              "_LENGTH": "200",
              "_ROLE": "Grouping Qualifier",
              "_CORE": "Perm",
              "_CONTROLLED": "",
              "_DESCRIPTION": "",
              "_ORIGIN": "Assigned",
              "_ORDER": "31",
              "_Comments": ""
            },
            {
              "_NAME": "MHPRESP",
              "_LABEL": "Medical History Event Pre-Specified",
              "_TYPE": "Char",
              "_LENGTH": "1",
              "_ROLE": "Record Qualifier",
              "_CORE": "Perm",
              "_CONTROLLED": "(NY)",
              "_DESCRIPTION": "",
              "_ORIGIN": "Assigned",
              "_ORDER": "32",
              "_Comments": ""
            },
            {
              "_NAME": "MHOCCUR",
              "_LABEL": "Medical History Occurrence",
              "_TYPE": "Char",
              "_LENGTH": "1",
              "_ROLE": "Record Qualifier",
              "_CORE": "Perm",
              "_CONTROLLED": "(NY)",
              "_DESCRIPTION": "",
              "_ORIGIN": "Assigned",
              "_ORDER": "33",
              "_Comments": ""
            },
            {
              "_NAME": "MHSTAT",
              "_LABEL": "Completion Status",
              "_TYPE": "Char",
              "_LENGTH": "8",
              "_ROLE": "Record Qualifier",
              "_CORE": "Perm",
              "_CONTROLLED": "(ND)",
              "_DESCRIPTION": "",
              "_ORIGIN": "Assigned",
              "_ORDER": "34",
              "_Comments": ""
            },
            {
              "_NAME": "MHREASND",
              "_LABEL": "Reason Medical History Not Collected",
              "_TYPE": "Char",
              "_LENGTH": "200",
              "_ROLE": "Record Qualifier",
              "_CORE": "Perm",
              "_CONTROLLED": "",
              "_DESCRIPTION": "",
              "_ORIGIN": "Assigned",
              "_ORDER": "35",
              "_Comments": ""
            },
            {
              "_NAME": "MHBODSYS",
              "_LABEL": "Body System or Organ Class",
              "_TYPE": "Char",
              "_LENGTH": "200",
              "_ROLE": "Record Qualifier",
              "_CORE": "Perm",
              "_CONTROLLED": "",
              "_DESCRIPTION": "",
              "_ORIGIN": "Assigned",
              "_ORDER": "36",
              "_Comments": "MedDRA version 13.1"
            },
            {
              "_NAME": "MHBDSYCD",
              "_LABEL": "Body System or Organ Class Code",
              "_TYPE": "Num",
              "_LENGTH": "8",
              "_ROLE": "Variable Qualifier",
              "_CORE": "Perm",
              "_CONTROLLED": "",
              "_DESCRIPTION": "",
              "_ORIGIN": "Assigned",
              "_ORDER": "37",
              "_Comments": "MedDRA version 13.1"
            },
            {
              "_NAME": "MHSOC",
              "_LABEL": "Primary System Organ Class",
              "_TYPE": "Char",
              "_LENGTH": "200",
              "_ROLE": "Variable Qualifier",
              "_CORE": "Perm",
              "_CONTROLLED": "",
              "_DESCRIPTION": "",
              "_ORIGIN": "Assigned",
              "_ORDER": "38",
              "_Comments": "MedDRA version 13.1"
            },
            {
              "_NAME": "MHSOCCD",
              "_LABEL": "Primary System Organ Class Code",
              "_TYPE": "Num",
              "_LENGTH": "8",
              "_ROLE": "Variable Qualifier",
              "_CORE": "Perm",
              "_CONTROLLED": "",
              "_DESCRIPTION": "",
              "_ORIGIN": "Assigned",
              "_ORDER": "39",
              "_Comments": "MedDRA version 13.1"
            },
            {
              "_NAME": "MHDTC",
              "_LABEL": "Date/Time of History Collection",
              "_TYPE": "Char",
              "_LENGTH": "20",
              "_ROLE": "Timing",
              "_CORE": "Perm",
              "_CONTROLLED": "ISO 8601",
              "_DESCRIPTION": "",
              "_ORIGIN": "Assigned",
              "_ORDER": "105",
              "_Comments": ""
            },
            {
              "_NAME": "MHSTDTC",
              "_LABEL": "Start Date/Time of Medical History Event",
              "_TYPE": "Char",
              "_LENGTH": "20",
              "_ROLE": "Timing",
              "_CORE": "Perm",
              "_CONTROLLED": "ISO 8601",
              "_DESCRIPTION": "",
              "_ORIGIN": "Assigned",
              "_ORDER": "106",
              "_Comments": ""
            },
            {
              "_NAME": "MHENDTC",
              "_LABEL": "End Date/Time of Medical History Event",
              "_TYPE": "Char",
              "_LENGTH": "20",
              "_ROLE": "Timing",
              "_CORE": "Perm",
              "_CONTROLLED": "ISO 8601",
              "_DESCRIPTION": "",
              "_ORIGIN": "Assigned",
              "_ORDER": "107",
              "_Comments": ""
            },
            {
              "_NAME": "MHDY",
              "_LABEL": "Study Day of History Collection",
              "_TYPE": "Num",
              "_LENGTH": "8",
              "_ROLE": "Timing",
              "_CORE": "Perm",
              "_CONTROLLED": "",
              "_DESCRIPTION": "",
              "_ORIGIN": "Derived",
              "_ORDER": "108",
              "_Comments": "Relative study day between <MHDTC> and DM.RFSTDTC. Add 1 if the difference is greater than or equal to 0."
            },
            {
              "_NAME": "MHSTDY",
              "_LABEL": "Study Day of Start of Medical History",
              "_TYPE": "Num",
              "_LENGTH": "8",
              "_ROLE": "Timing",
              "_CORE": "Perm",
              "_CONTROLLED": "",
              "_DESCRIPTION": "",
              "_ORIGIN": "Derived",
              "_ORDER": "109",
              "_Comments": "Relative study day between <MHSTDTC> and DM.RFSTDTC. Add 1 if the difference is greater than or equal to 0."
            },
            {
              "_NAME": "MHENDY",
              "_LABEL": "Study Day of End of Medical History",
              "_TYPE": "Num",
              "_LENGTH": "8",
              "_ROLE": "Timing",
              "_CORE": "Perm",
              "_CONTROLLED": "",
              "_DESCRIPTION": "",
              "_ORIGIN": "Derived",
              "_ORDER": "110",
              "_Comments": "Relative study day between <MHENDTC> and DM.RFSTDTC. Add 1 if the difference is greater than or equal to 0."
            },
            {
              "_NAME": "MHENRF",
              "_LABEL": "End Relative to Reference Period",
              "_TYPE": "Char",
              "_LENGTH": "12",
              "_ROLE": "Timing",
              "_CORE": "Perm",
              "_CONTROLLED": "(STENRF)",
              "_DESCRIPTION": "",
              "_ORIGIN": "Assigned",
              "_ORDER": "118",
              "_Comments": ""
            },
            {
              "_NAME": "MHENRTPT",
              "_LABEL": "End Relative to Reference Time Point",
              "_TYPE": "Char",
              "_LENGTH": "12",
              "_ROLE": "Timing",
              "_CORE": "Perm",
              "_CONTROLLED": "(STENRF)",
              "_DESCRIPTION": "",
              "_ORIGIN": "Assigned",
              "_ORDER": "122",
              "_Comments": ""
            },
            {
              "_NAME": "MHENTPT",
              "_LABEL": "End Reference Time Point",
              "_TYPE": "Char",
              "_LENGTH": "200",
              "_ROLE": "Timing",
              "_CORE": "Perm",
              "_CONTROLLED": "",
              "_DESCRIPTION": "",
              "_ORIGIN": "Assigned",
              "_ORDER": "123",
              "_Comments": ""
            }
          ]
        },
        "KEYVARIABLES": {
          "children": [
            {
              "_NAME": "STUDYID"
            },
            {
              "_NAME": "USUBJID"
            },
            {
              "_NAME": "MHDTC"
            },
            {
              "_NAME": "MHCAT"
            },
            {
              "_NAME": "MHTERM"
            }
          ]
        },
        "_CODE": "MH",
        "_NAME": "Medical History",
        "_STRUCTURE": "One record per medical history event per subject",
        "_CLASS": "Events",
        "_DESCRIPTION": ""
      },
      {
        "VARIABLES": {
          "children": [
            {
              "_NAME": "STUDYID",
              "_LABEL": "Study Identifier",
              "_TYPE": "Char",
              "_LENGTH": "20",
              "_ROLE": "Identifier",
              "_CORE": "Req",
              "_CONTROLLED": "",
              "_DESCRIPTION": "",
              "_ORIGIN": "Assigned",
              "_ORDER": "1",
              "_Comments": ""
            },
            {
              "_NAME": "DOMAIN",
              "_LABEL": "Domain Abbreviation",
              "_TYPE": "Char",
              "_LENGTH": "2",
              "_ROLE": "Identifier",
              "_CORE": "Req",
              "_CONTROLLED": "",
              "_DESCRIPTION": "",
              "_ORIGIN": "Assigned",
              "_ORDER": "2",
              "_Comments": ""
            },
            {
              "_NAME": "USUBJID",
              "_LABEL": "Unique Subject Identifier",
              "_TYPE": "Char",
              "_LENGTH": "25",
              "_ROLE": "Identifier",
              "_CORE": "Req",
              "_CONTROLLED": "",
              "_DESCRIPTION": "",
              "_ORIGIN": "Derived",
              "_ORDER": "4",
              "_Comments": "Concatenate STUDYID, SITEID and SUBJID, separated by \"-\"."
            },
            {
              "_NAME": "DVSEQ",
              "_LABEL": "Sequence Number",
              "_TYPE": "Num",
              "_LENGTH": "8",
              "_ROLE": "Identifier",
              "_CORE": "Req",
              "_CONTROLLED": "",
              "_DESCRIPTION": "",
              "_ORIGIN": "Derived",
              "_ORDER": "8",
              "_Comments": "Sort by the key variables specified in the domain list. Assign DVSEQ=1 to the first record and increment DVSEQ by 1 for each additional record so that DVSEQ is unique for each record within a USUBJID."
            },
            {
              "_NAME": "DVREFID",
              "_LABEL": "Reference ID",
              "_TYPE": "Char",
              "_LENGTH": "20",
              "_ROLE": "Identifier",
              "_CORE": "Perm",
              "_CONTROLLED": "",
              "_DESCRIPTION": "",
              "_ORIGIN": "Assigned",
              "_ORDER": "10",
              "_Comments": ""
            },
            {
              "_NAME": "DVSPID",
              "_LABEL": "Sponsor-Defined Identifier",
              "_TYPE": "Char",
              "_LENGTH": "20",
              "_ROLE": "Identifier",
              "_CORE": "Perm",
              "_CONTROLLED": "",
              "_DESCRIPTION": "",
              "_ORIGIN": "Assigned",
              "_ORDER": "11",
              "_Comments": ""
            },
            {
              "_NAME": "DVTERM",
              "_LABEL": "Protocol Deviation Term",
              "_TYPE": "Char",
              "_LENGTH": "200",
              "_ROLE": "Topic",
              "_CORE": "Req",
              "_CONTROLLED": "",
              "_DESCRIPTION": "",
              "_ORIGIN": "Assigned",
              "_ORDER": "20",
              "_Comments": ""
            },
            {
              "_NAME": "DVDECOD",
              "_LABEL": "Protocol Deviation Coded Term",
              "_TYPE": "Char",
              "_LENGTH": "200",
              "_ROLE": "Synonym Qualifier",
              "_CORE": "Perm",
              "_CONTROLLED": "",
              "_DESCRIPTION": "",
              "_ORIGIN": "Assigned",
              "_ORDER": "24",
              "_Comments": ""
            },
            {
              "_NAME": "DVCAT",
              "_LABEL": "Category for Protocol Deviation",
              "_TYPE": "Char",
              "_LENGTH": "200",
              "_ROLE": "Grouping Qualifier",
              "_CORE": "Perm",
              "_CONTROLLED": "",
              "_DESCRIPTION": "",
              "_ORIGIN": "Assigned",
              "_ORDER": "30",
              "_Comments": ""
            },
            {
              "_NAME": "DVSCAT",
              "_LABEL": "Subcategory for Protocol Deviation",
              "_TYPE": "Char",
              "_LENGTH": "200",
              "_ROLE": "Grouping Qualifier",
              "_CORE": "Perm",
              "_CONTROLLED": "",
              "_DESCRIPTION": "",
              "_ORIGIN": "Assigned",
              "_ORDER": "31",
              "_Comments": ""
            },
            {
              "_NAME": "EPOCH",
              "_LABEL": "Epoch",
              "_TYPE": "Char",
              "_LENGTH": "50",
              "_ROLE": "Timing",
              "_CORE": "Perm",
              "_CONTROLLED": "",
              "_DESCRIPTION": "",
              "_ORIGIN": "Derived",
              "_ORDER": "104",
              "_Comments": "'SCREENING' if DVSTDTC is before RFSTDTC; 'TREATMENT' if DVSTDTC is between RFSTDTC and RFENDTC; 'FOLLOW-UP' if DVSTDTC is after RFENDTC."
            },
            {
              "_NAME": "DVSTDTC",
              "_LABEL": "Start Date/Time of Deviation",
              "_TYPE": "Char",
              "_LENGTH": "20",
              "_ROLE": "Timing",
              "_CORE": "Perm",
              "_CONTROLLED": "ISO 8601",
              "_DESCRIPTION": "",
              "_ORIGIN": "Assigned",
              "_ORDER": "106",
              "_Comments": ""
            },
            {
              "_NAME": "DVENDTC",
              "_LABEL": "End Date/Time of Deviation",
              "_TYPE": "Char",
              "_LENGTH": "20",
              "_ROLE": "Timing",
              "_CORE": "Perm",
              "_CONTROLLED": "ISO 8601",
              "_DESCRIPTION": "",
              "_ORIGIN": "Assigned",
              "_ORDER": "107",
              "_Comments": ""
            },
            {
              "_NAME": "DVSTDY",
              "_LABEL": "Study Day of Start of Observation",
              "_TYPE": "Num",
              "_LENGTH": "8",
              "_ROLE": "Timing",
              "_CORE": "Perm",
              "_CONTROLLED": "",
              "_DESCRIPTION": "",
              "_ORIGIN": "Derived",
              "_ORDER": "109",
              "_Comments": "Relative study day between <DVSTDTC> and DM.RFSTDTC. Add 1 if the difference is greater than or equal to 0."
            },
            {
              "_NAME": "DVENDY",
              "_LABEL": "Study Day of End of Observation",
              "_TYPE": "Num",
              "_LENGTH": "8",
              "_ROLE": "Timing",
              "_CORE": "Perm",
              "_CONTROLLED": "",
              "_DESCRIPTION": "",
              "_ORIGIN": "Derived",
              "_ORDER": "110",
              "_Comments": "Relative study day between <DVENDTC> and DM.RFSTDTC. Add 1 if the difference is greater than or equal to 0."
            }
          ]
        },
        "KEYVARIABLES": {
          "children": [
            {
              "_NAME": "STUDYID"
            },
            {
              "_NAME": "USUBJID"
            },
            {
              "_NAME": "DVSTDTC"
            },
            {
              "_NAME": "DVCAT"
            },
            {
              "_NAME": "DVTERM"
            }
          ]
        },
        "_CODE": "DV",
        "_NAME": "Protocol Deviations",
        "_STRUCTURE": "One record per protocol deviation per subject",
        "_CLASS": "Events",
        "_DESCRIPTION": ""
      },
      {
        "VARIABLES": {
          "children": [
            {
              "_NAME": "STUDYID",
              "_LABEL": "Study Identifier",
              "_TYPE": "Char",
              "_LENGTH": "20",
              "_ROLE": "Identifier",
              "_CORE": "Req",
              "_CONTROLLED": "",
              "_DESCRIPTION": "",
              "_ORIGIN": "Assigned",
              "_ORDER": "1",
              "_Comments": ""
            },
            {
              "_NAME": "DOMAIN",
              "_LABEL": "Domain Abbreviation",
              "_TYPE": "Char",
              "_LENGTH": "2",
              "_ROLE": "Identifier",
              "_CORE": "Req",
              "_CONTROLLED": "",
              "_DESCRIPTION": "",
              "_ORIGIN": "Assigned",
              "_ORDER": "2",
              "_Comments": ""
            },
            {
              "_NAME": "USUBJID",
              "_LABEL": "Unique Subject Identifier",
              "_TYPE": "Char",
              "_LENGTH": "25",
              "_ROLE": "Identifier",
              "_CORE": "Req",
              "_CONTROLLED": "",
              "_DESCRIPTION": "",
              "_ORIGIN": "Derived",
              "_ORDER": "4",
              "_Comments": "Concatenate STUDYID, SITEID and SUBJID, separated by \"-\"."
            },
            {
              "_NAME": "CESEQ",
              "_LABEL": "Sequence Number",
              "_TYPE": "Num",
              "_LENGTH": "8",
              "_ROLE": "Identifier",
              "_CORE": "Req",
              "_CONTROLLED": "",
              "_DESCRIPTION": "",
              "_ORIGIN": "Derived",
              "_ORDER": "8",
              "_Comments": "Sort by the key variables specified in the domain list. Assign CESEQ=1 to the first record and increment CESEQ by 1 for each additional record so that CESEQ is unique for each record within a USUBJID."
            },
            {
              "_NAME": "CEGRPID",
              "_LABEL": "Group ID",
              "_TYPE": "Char",
              "_LENGTH": "20",
              "_ROLE": "Identifier",
              "_CORE": "Perm",
              "_CONTROLLED": "",
              "_DESCRIPTION": "",
              "_ORIGIN": "Assigned",
              "_ORDER": "9",
              "_Comments": ""
            },
            {
              "_NAME": "CEREFID",
              "_LABEL": "Reference ID",
              "_TYPE": "Char",
              "_LENGTH": "20",
              "_ROLE": "Identifier",
              "_CORE": "Perm",
              "_CONTROLLED": "",
              "_DESCRIPTION": "",
              "_ORIGIN": "Assigned",
              "_ORDER": "10",
              "_Comments": ""
            },
            {
              "_NAME": "CESPID",
              "_LABEL": "Sponsor-Defined Identifier",
              "_TYPE": "Char",
              "_LENGTH": "20",
              "_ROLE": "Identifier",
              "_CORE": "Perm",
              "_CONTROLLED": "",
              "_DESCRIPTION": "",
              "_ORIGIN": "Assigned",
              "_ORDER": "11",
              "_Comments": ""
            },
            {
              "_NAME": "CETERM",
              "_LABEL": "Reported Term for the Clinical Event",
              "_TYPE": "Char",
              "_LENGTH": "200",
              "_ROLE": "Topic",
              "_CORE": "Req",
              "_CONTROLLED": "",
              "_DESCRIPTION": "",
              "_ORIGIN": "Assigned",
              "_ORDER": "20",
              "_Comments": ""
            },
            {
              "_NAME": "CEDECOD",
              "_LABEL": "Dictionary-Derived Term",
              "_TYPE": "Char",
              "_LENGTH": "200",
              "_ROLE": "Synonym Qualifier",
              "_CORE": "Perm",
              "_CONTROLLED": "",
              "_DESCRIPTION": "",
              "_ORIGIN": "Assigned",
              "_ORDER": "24",
              "_Comments": ""
            },
            {
              "_NAME": "CECAT",
              "_LABEL": "Category for Clinical Event",
              "_TYPE": "Char",
              "_LENGTH": "200",
              "_ROLE": "Grouping Qualifier",
              "_CORE": "Perm",
              "_CONTROLLED": "",
              "_DESCRIPTION": "",
              "_ORIGIN": "Assigned",
              "_ORDER": "30",
              "_Comments": ""
            },
            {
              "_NAME": "CESCAT",
              "_LABEL": "Subcategory for Clinical Event",
              "_TYPE": "Char",
              "_LENGTH": "200",
              "_ROLE": "Grouping Qualifier",
              "_CORE": "Perm",
              "_CONTROLLED": "",
              "_DESCRIPTION": "",
              "_ORIGIN": "Assigned",
              "_ORDER": "31",
              "_Comments": ""
            },
            {
              "_NAME": "CEPRESP",
              "_LABEL": "Clinical Event Pre-Specified",
              "_TYPE": "Char",
              "_LENGTH": "1",
              "_ROLE": "Record Qualifier",
              "_CORE": "Perm",
              "_CONTROLLED": "(NY)",
              "_DESCRIPTION": "",
              "_ORIGIN": "Assigned",
              "_ORDER": "32",
              "_Comments": ""
            },
            {
              "_NAME": "CEOCCUR",
              "_LABEL": "Clinical Event Occurrence",
              "_TYPE": "Char",
              "_LENGTH": "1",
              "_ROLE": "Record Qualifier",
              "_CORE": "Perm",
              "_CONTROLLED": "(NY)",
              "_DESCRIPTION": "",
              "_ORIGIN": "Assigned",
              "_ORDER": "33",
              "_Comments": ""
            },
            {
              "_NAME": "CESTAT",
              "_LABEL": "Completion Status",
              "_TYPE": "Char",
              "_LENGTH": "8",
              "_ROLE": "Record Qualifier",
              "_CORE": "Perm",
              "_CONTROLLED": "(ND)",
              "_DESCRIPTION": "",
              "_ORIGIN": "Assigned",
              "_ORDER": "34",
              "_Comments": ""
            },
            {
              "_NAME": "CEREASND",
              "_LABEL": "Reason Clinical Event Not Collected",
              "_TYPE": "Char",
              "_LENGTH": "200",
              "_ROLE": "Record Qualifier",
              "_CORE": "Perm",
              "_CONTROLLED": "",
              "_DESCRIPTION": "",
              "_ORIGIN": "Assigned",
              "_ORDER": "35",
              "_Comments": ""
            },
            {
              "_NAME": "CEBODSYS",
              "_LABEL": "Body System or Organ Class",
              "_TYPE": "Char",
              "_LENGTH": "200",
              "_ROLE": "Record Qualifier",
              "_CORE": "Perm",
              "_CONTROLLED": "",
              "_DESCRIPTION": "",
              "_ORIGIN": "Assigned",
              "_ORDER": "36",
              "_Comments": ""
            },
            {
              "_NAME": "CESEV",
              "_LABEL": "Severity/Intensity",
              "_TYPE": "Char",
              "_LENGTH": "8",
              "_ROLE": "Record Qualifier",
              "_CORE": "Perm",
              "_CONTROLLED": "",
              "_DESCRIPTION": "",
              "_ORIGIN": "Assigned",
              "_ORDER": "41",
              "_Comments": ""
            },
            {
              "_NAME": "CEDTC",
              "_LABEL": "Date/Time of Event Collection",
              "_TYPE": "Char",
              "_LENGTH": "20",
              "_ROLE": "Timing",
              "_CORE": "Perm",
              "_CONTROLLED": "ISO 8601",
              "_DESCRIPTION": "",
              "_ORIGIN": "Assigned",
              "_ORDER": "105",
              "_Comments": ""
            },
            {
              "_NAME": "CESTDTC",
              "_LABEL": "Start Date/Time of Clinical Event",
              "_TYPE": "Char",
              "_LENGTH": "20",
              "_ROLE": "Timing",
              "_CORE": "Perm",
              "_CONTROLLED": "ISO 8601",
              "_DESCRIPTION": "",
              "_ORIGIN": "Assigned",
              "_ORDER": "106",
              "_Comments": ""
            },
            {
              "_NAME": "CEENDTC",
              "_LABEL": "End Date/Time of Clinical Event",
              "_TYPE": "Char",
              "_LENGTH": "20",
              "_ROLE": "Timing",
              "_CORE": "Perm",
              "_CONTROLLED": "ISO 8601",
              "_DESCRIPTION": "",
              "_ORIGIN": "Assigned",
              "_ORDER": "107",
              "_Comments": ""
            },
            {
              "_NAME": "CEDY",
              "_LABEL": "Study Day of Event Collection",
              "_TYPE": "Num",
              "_LENGTH": "8",
              "_ROLE": "Timing",
              "_CORE": "Perm",
              "_CONTROLLED": "",
              "_DESCRIPTION": "",
              "_ORIGIN": "Derived",
              "_ORDER": "108",
              "_Comments": "Relative study day between <CDTC> and DM.RFSTDTC. Add 1 if the difference is greater than or equal to 0."
            },
            {
              "_NAME": "CESTDY",
              "_LABEL": "Study Day of Start of Observation",
              "_TYPE": "Num",
              "_LENGTH": "8",
              "_ROLE": "Timing",
              "_CORE": "Perm",
              "_CONTROLLED": "",
              "_DESCRIPTION": "",
              "_ORIGIN": "Derived",
              "_ORDER": "109",
              "_Comments": "Relative study day between <CESTDTC> and DM.RFSTDTC. Add 1 if the difference is greater than or equal to 0."
            },
            {
              "_NAME": "CEENDY",
              "_LABEL": "Study Day of End of Observation",
              "_TYPE": "Num",
              "_LENGTH": "8",
              "_ROLE": "Timing",
              "_CORE": "Perm",
              "_CONTROLLED": "",
              "_DESCRIPTION": "",
              "_ORIGIN": "Derived",
              "_ORDER": "110",
              "_Comments": "Relative study day between <CEENDTC> and DM.RFSTDTC. Add 1 if the difference is greater than or equal to 0."
            },
            {
              "_NAME": "CESTRF",
              "_LABEL": "Start Relative to Reference Period",
              "_TYPE": "Char",
              "_LENGTH": "12",
              "_ROLE": "Timing",
              "_CORE": "Perm",
              "_CONTROLLED": "(STENRF)",
              "_DESCRIPTION": "",
              "_ORIGIN": "Assigned",
              "_ORDER": "117",
              "_Comments": ""
            },
            {
              "_NAME": "CEENRF",
              "_LABEL": "End Relative to Reference Period",
              "_TYPE": "Char",
              "_LENGTH": "12",
              "_ROLE": "Timing",
              "_CORE": "Perm",
              "_CONTROLLED": "(STENRF)",
              "_DESCRIPTION": "",
              "_ORIGIN": "Assigned",
              "_ORDER": "118",
              "_Comments": ""
            },
            {
              "_NAME": "CESTRTPT",
              "_LABEL": "Start Relative to Reference Time Point",
              "_TYPE": "Char",
              "_LENGTH": "12",
              "_ROLE": "Timing",
              "_CORE": "Perm",
              "_CONTROLLED": "(STENRF)",
              "_DESCRIPTION": "",
              "_ORIGIN": "Assigned",
              "_ORDER": "120",
              "_Comments": ""
            },
            {
              "_NAME": "CESTTPT",
              "_LABEL": "Start Reference Time Point",
              "_TYPE": "Char",
              "_LENGTH": "200",
              "_ROLE": "Timing",
              "_CORE": "Perm",
              "_CONTROLLED": "",
              "_DESCRIPTION": "",
              "_ORIGIN": "Assigned",
              "_ORDER": "121",
              "_Comments": ""
            },
            {
              "_NAME": "CEENRTPT",
              "_LABEL": "End Relative to Reference Time Point",
              "_TYPE": "Char",
              "_LENGTH": "12",
              "_ROLE": "Timing",
              "_CORE": "Perm",
              "_CONTROLLED": "(STENRF)",
              "_DESCRIPTION": "",
              "_ORIGIN": "Assigned",
              "_ORDER": "122",
              "_Comments": ""
            },
            {
              "_NAME": "CEENTPT",
              "_LABEL": "End Reference Time Point",
              "_TYPE": "Char",
              "_LENGTH": "200",
              "_ROLE": "Timing",
              "_CORE": "Perm",
              "_CONTROLLED": "",
              "_DESCRIPTION": "",
              "_ORIGIN": "Assigned",
              "_ORDER": "123",
              "_Comments": ""
            }
          ]
        },
        "KEYVARIABLES": {
          "children": [
            {
              "_NAME": "STUDYID"
            },
            {
              "_NAME": "USUBJID"
            },
            {
              "_NAME": "CESTDTC"
            },
            {
              "_NAME": "CECAT"
            },
            {
              "_NAME": "CETERM"
            }
          ]
        },
        "_CODE": "CE",
        "_NAME": "Clinical Events",
        "_STRUCTURE": "One record per event per subject",
        "_CLASS": "Events",
        "_DESCRIPTION": ""
      },
      {
        "VARIABLES": {
          "children": [
            {
              "_NAME": "STUDYID",
              "_LABEL": "Study Identifier",
              "_TYPE": "Char",
              "_LENGTH": "20",
              "_ROLE": "Identifier",
              "_CORE": "Req",
              "_CONTROLLED": "",
              "_DESCRIPTION": "",
              "_ORIGIN": "Assigned",
              "_ORDER": "1",
              "_Comments": ""
            },
            {
              "_NAME": "DOMAIN",
              "_LABEL": "Domain Abbreviation",
              "_TYPE": "Char",
              "_LENGTH": "2",
              "_ROLE": "Identifier",
              "_CORE": "Req",
              "_CONTROLLED": "",
              "_DESCRIPTION": "",
              "_ORIGIN": "Assigned",
              "_ORDER": "2",
              "_Comments": ""
            },
            {
              "_NAME": "USUBJID",
              "_LABEL": "Unique Subject Identifier",
              "_TYPE": "Char",
              "_LENGTH": "25",
              "_ROLE": "Identifier",
              "_CORE": "Req",
              "_CONTROLLED": "",
              "_DESCRIPTION": "",
              "_ORIGIN": "Derived",
              "_ORDER": "4",
              "_Comments": "Concatenate STUDYID, SITEID and SUBJID, separated by \"-\"."
            },
            {
              "_NAME": "HOSEQ",
              "_LABEL": "Sequence Number",
              "_TYPE": "Num",
              "_LENGTH": "8",
              "_ROLE": "Identifier",
              "_CORE": "Req",
              "_CONTROLLED": "",
              "_DESCRIPTION": "",
              "_ORIGIN": "Derived",
              "_ORDER": "8",
              "_Comments": "Sort by the key variables specified in the domain list. Assign HOSEQ=1 to the first record and increment HOSEQ by 1 for each additional record so that HOSEQ is unique for each record within a USUBJID."
            },
            {
              "_NAME": "HOGRPID",
              "_LABEL": "Group ID",
              "_TYPE": "Char",
              "_LENGTH": "20",
              "_ROLE": "Identifier",
              "_CORE": "",
              "_CONTROLLED": "",
              "_DESCRIPTION": "",
              "_ORIGIN": "Assigned",
              "_ORDER": "9",
              "_Comments": ""
            },
            {
              "_NAME": "HOREFID",
              "_LABEL": "Reference ID",
              "_TYPE": "Char",
              "_LENGTH": "20",
              "_ROLE": "Identifier",
              "_CORE": "",
              "_CONTROLLED": "",
              "_DESCRIPTION": "",
              "_ORIGIN": "Assigned",
              "_ORDER": "10",
              "_Comments": ""
            },
            {
              "_NAME": "HOSPID",
              "_LABEL": "Sponsor-Defined Identifier",
              "_TYPE": "Char",
              "_LENGTH": "20",
              "_ROLE": "Identifier",
              "_CORE": "",
              "_CONTROLLED": "",
              "_DESCRIPTION": "",
              "_ORIGIN": "Assigned",
              "_ORDER": "11",
              "_Comments": ""
            },
            {
              "_NAME": "HOTERM",
              "_LABEL": "Reported Term",
              "_TYPE": "Char",
              "_LENGTH": "200",
              "_ROLE": "Topic",
              "_CORE": "",
              "_CONTROLLED": "",
              "_DESCRIPTION": "",
              "_ORIGIN": "Assigned",
              "_ORDER": "20",
              "_Comments": ""
            },
            {
              "_NAME": "HODECOD",
              "_LABEL": "Dictionary-Derived Term",
              "_TYPE": "Char",
              "_LENGTH": "200",
              "_ROLE": "Synonym Qualifier",
              "_CORE": "",
              "_CONTROLLED": "",
              "_DESCRIPTION": "",
              "_ORIGIN": "Assigned",
              "_ORDER": "24",
              "_Comments": "MedDRA version 13.1"
            },
            {
              "_NAME": "HOCAT",
              "_LABEL": "Category",
              "_TYPE": "Char",
              "_LENGTH": "200",
              "_ROLE": "Grouping Qualifier",
              "_CORE": "",
              "_CONTROLLED": "",
              "_DESCRIPTION": "",
              "_ORIGIN": "Assigned",
              "_ORDER": "30",
              "_Comments": ""
            },
            {
              "_NAME": "HOSCAT",
              "_LABEL": "Subcategory",
              "_TYPE": "Char",
              "_LENGTH": "200",
              "_ROLE": "Grouping Qualifier",
              "_CORE": "",
              "_CONTROLLED": "",
              "_DESCRIPTION": "",
              "_ORIGIN": "Assigned",
              "_ORDER": "31",
              "_Comments": ""
            },
            {
              "_NAME": "HOPRESP",
              "_LABEL": "Pre-specified",
              "_TYPE": "Char",
              "_LENGTH": "1",
              "_ROLE": "Record Qualifier",
              "_CORE": "",
              "_CONTROLLED": "",
              "_DESCRIPTION": "",
              "_ORIGIN": "Assigned",
              "_ORDER": "32",
              "_Comments": ""
            },
            {
              "_NAME": "HOOCCUR",
              "_LABEL": "Occurrence",
              "_TYPE": "Char",
              "_LENGTH": "1",
              "_ROLE": "Record Qualifier",
              "_CORE": "",
              "_CONTROLLED": "NY",
              "_DESCRIPTION": "",
              "_ORIGIN": "Assigned",
              "_ORDER": "33",
              "_Comments": ""
            },
            {
              "_NAME": "HOSTAT",
              "_LABEL": "Completion Status",
              "_TYPE": "Char",
              "_LENGTH": "8",
              "_ROLE": "Record Qualifier",
              "_CORE": "",
              "_CONTROLLED": "ND",
              "_DESCRIPTION": "",
              "_ORIGIN": "Assigned",
              "_ORDER": "34",
              "_Comments": ""
            },
            {
              "_NAME": "HOREASND",
              "_LABEL": "Reason Not Done",
              "_TYPE": "Char",
              "_LENGTH": "200",
              "_ROLE": "Record Qualifier",
              "_CORE": "",
              "_CONTROLLED": "",
              "_DESCRIPTION": "",
              "_ORIGIN": "Assigned",
              "_ORDER": "35",
              "_Comments": ""
            },
            {
              "_NAME": "HOSTDTC",
              "_LABEL": "Start Date/Time of Observation",
              "_TYPE": "Char",
              "_LENGTH": "20",
              "_ROLE": "Timing",
              "_CORE": "",
              "_CONTROLLED": "",
              "_DESCRIPTION": "",
              "_ORIGIN": "Assigned",
              "_ORDER": "106",
              "_Comments": ""
            },
            {
              "_NAME": "HOENDTC",
              "_LABEL": "End Date/Time of Observation",
              "_TYPE": "Char",
              "_LENGTH": "20",
              "_ROLE": "Timing",
              "_CORE": "",
              "_CONTROLLED": "",
              "_DESCRIPTION": "",
              "_ORIGIN": "Assigned",
              "_ORDER": "107",
              "_Comments": ""
            },
            {
              "_NAME": "HOSTDY",
              "_LABEL": "Study Day of Start of Observation",
              "_TYPE": "Num",
              "_LENGTH": "8",
              "_ROLE": "Timing",
              "_CORE": "",
              "_CONTROLLED": "",
              "_DESCRIPTION": "",
              "_ORIGIN": "Derived",
              "_ORDER": "109",
              "_Comments": "Relative study day between <HOSTDTC> and DM.RFSTDTC. Add 1 if the difference is greater than or equal to 0."
            },
            {
              "_NAME": "HOENDY",
              "_LABEL": "Study Day of End of Observation",
              "_TYPE": "Num",
              "_LENGTH": "8",
              "_ROLE": "Timing",
              "_CORE": "",
              "_CONTROLLED": "",
              "_DESCRIPTION": "",
              "_ORIGIN": "Derived",
              "_ORDER": "110",
              "_Comments": "Relative study day between <HOENDTC> and DM.RFSTDTC. Add 1 if the difference is greater than or equal to 0."
            },
            {
              "_NAME": "HOENRF",
              "_LABEL": "End Relative to Reference Period",
              "_TYPE": "Char",
              "_LENGTH": "12",
              "_ROLE": "Timing",
              "_CORE": "",
              "_CONTROLLED": "STENRF",
              "_DESCRIPTION": "",
              "_ORIGIN": "Assigned",
              "_ORDER": "118",
              "_Comments": ""
            }
          ]
        },
        "KEYVARIABLES": {
          "children": [
            {
              "_NAME": "STUDYID"
            },
            {
              "_NAME": "USUBJID"
            },
            {
              "_NAME": "HOCAT"
            },
            {
              "_NAME": "HOSCAT"
            },
            {
              "_NAME": "HOSTDTC"
            },
            {
              "_NAME": "HOTERM"
            }
          ]
        },
        "_CODE": "HO",
        "_NAME": "Hospitalization",
        "_STRUCTURE": "One record per subject per hospitalization event",
        "_CLASS": "Events",
        "_DESCRIPTION": ""
      },
      {
        "VARIABLES": {
          "children": [
            {
              "_NAME": "STUDYID",
              "_LABEL": "Study Identifier",
              "_TYPE": "Char",
              "_LENGTH": "20",
              "_ROLE": "Identifier",
              "_CORE": "Req",
              "_CONTROLLED": "",
              "_DESCRIPTION": "",
              "_ORIGIN": "Assigned",
              "_ORDER": "1",
              "_Comments": ""
            },
            {
              "_NAME": "DOMAIN",
              "_LABEL": "Domain Abbreviation",
              "_TYPE": "Char",
              "_LENGTH": "2",
              "_ROLE": "Identifier",
              "_CORE": "Req",
              "_CONTROLLED": "",
              "_DESCRIPTION": "",
              "_ORIGIN": "Assigned",
              "_ORDER": "2",
              "_Comments": ""
            },
            {
              "_NAME": "USUBJID",
              "_LABEL": "Unique Subject Identifier",
              "_TYPE": "Char",
              "_LENGTH": "25",
              "_ROLE": "Identifier",
              "_CORE": "Req",
              "_CONTROLLED": "",
              "_DESCRIPTION": "",
              "_ORIGIN": "Derived",
              "_ORDER": "4",
              "_Comments": "Concatenate STUDYID, SITEID and SUBJID, separated by \"-\"."
            },
            {
              "_NAME": "EGSEQ",
              "_LABEL": "Sequence Number",
              "_TYPE": "Num",
              "_LENGTH": "8",
              "_ROLE": "Identifier",
              "_CORE": "Req",
              "_CONTROLLED": "",
              "_DESCRIPTION": "",
              "_ORIGIN": "Derived",
              "_ORDER": "8",
              "_Comments": "Sort by the key variables specified in the domain list. Assign EGSEQ=1 to the first record and increment EGSEQ by 1 for each additional record so that EGSEQ is unique for each record within a USUBJID."
            },
            {
              "_NAME": "EGGRPID",
              "_LABEL": "Group ID",
              "_TYPE": "Char",
              "_LENGTH": "20",
              "_ROLE": "Identifier",
              "_CORE": "Perm",
              "_CONTROLLED": "",
              "_DESCRIPTION": "",
              "_ORIGIN": "Assigned",
              "_ORDER": "9",
              "_Comments": ""
            },
            {
              "_NAME": "EGREFID",
              "_LABEL": "ECG Reference ID",
              "_TYPE": "Char",
              "_LENGTH": "20",
              "_ROLE": "Identifier",
              "_CORE": "Perm",
              "_CONTROLLED": "",
              "_DESCRIPTION": "",
              "_ORIGIN": "Assigned",
              "_ORDER": "10",
              "_Comments": ""
            },
            {
              "_NAME": "EGSPID",
              "_LABEL": "Sponsor-Defined Identifier",
              "_TYPE": "Char",
              "_LENGTH": "20",
              "_ROLE": "Identifier",
              "_CORE": "Perm",
              "_CONTROLLED": "",
              "_DESCRIPTION": "",
              "_ORIGIN": "Assigned",
              "_ORDER": "11",
              "_Comments": ""
            },
            {
              "_NAME": "EGTESTCD",
              "_LABEL": "ECG Test or Examination Short Name",
              "_TYPE": "Char",
              "_LENGTH": "8",
              "_ROLE": "Topic",
              "_CORE": "Req",
              "_CONTROLLED": "",
              "_DESCRIPTION": "",
              "_ORIGIN": "Assigned",
              "_ORDER": "20",
              "_Comments": ""
            },
            {
              "_NAME": "EGTEST",
              "_LABEL": "ECG Test or Examination Name",
              "_TYPE": "Char",
              "_LENGTH": "40",
              "_ROLE": "Synonym Qualifier",
              "_CORE": "Req",
              "_CONTROLLED": "",
              "_DESCRIPTION": "",
              "_ORIGIN": "Assigned",
              "_ORDER": "21",
              "_Comments": ""
            },
            {
              "_NAME": "EGCAT",
              "_LABEL": "Category for ECG",
              "_TYPE": "Char",
              "_LENGTH": "200",
              "_ROLE": "Grouping Qualifier",
              "_CORE": "Perm",
              "_CONTROLLED": "",
              "_DESCRIPTION": "",
              "_ORIGIN": "Assigned",
              "_ORDER": "24",
              "_Comments": ""
            },
            {
              "_NAME": "EGSCAT",
              "_LABEL": "Subcategory for ECG",
              "_TYPE": "Char",
              "_LENGTH": "200",
              "_ROLE": "Grouping Qualifier",
              "_CORE": "Perm",
              "_CONTROLLED": "",
              "_DESCRIPTION": "",
              "_ORIGIN": "Assigned",
              "_ORDER": "25",
              "_Comments": ""
            },
            {
              "_NAME": "EGPOS",
              "_LABEL": "ECG Position of Subject",
              "_TYPE": "Char",
              "_LENGTH": "50",
              "_ROLE": "Record Qualifier",
              "_CORE": "Perm",
              "_CONTROLLED": "(POSITION)",
              "_DESCRIPTION": "",
              "_ORIGIN": "Protocol",
              "_ORDER": "26",
              "_Comments": ""
            },
            {
              "_NAME": "EGORRES",
              "_LABEL": "Result or Finding in Original Units",
              "_TYPE": "Char",
              "_LENGTH": "200",
              "_ROLE": "Result Qualifier",
              "_CORE": "Exp",
              "_CONTROLLED": "",
              "_DESCRIPTION": "",
              "_ORIGIN": "Assigned",
              "_ORDER": "28",
              "_Comments": ""
            },
            {
              "_NAME": "EGORRESU",
              "_LABEL": "Original Units",
              "_TYPE": "Char",
              "_LENGTH": "20",
              "_ROLE": "Variable Qualifier",
              "_CORE": "Perm",
              "_CONTROLLED": "(UNIT)",
              "_DESCRIPTION": "",
              "_ORIGIN": "Assigned",
              "_ORDER": "29",
              "_Comments": ""
            },
            {
              "_NAME": "EGSTRESC",
              "_LABEL": "Character Result/Finding in Std Format",
              "_TYPE": "Char",
              "_LENGTH": "200",
              "_ROLE": "Result Qualifier",
              "_CORE": "Exp",
              "_CONTROLLED": "(EGSTRESC)",
              "_DESCRIPTION": "",
              "_ORIGIN": "Derived",
              "_ORDER": "32",
              "_Comments": "If data collected in non-standard units, then data is converted using standard conversion factors to standard units; else equal to EGORRES."
            },
            {
              "_NAME": "EGSTRESN",
              "_LABEL": "Numeric Result/Finding in Standard Units",
              "_TYPE": "Num",
              "_LENGTH": "8",
              "_ROLE": "Result Qualifier",
              "_CORE": "Perm",
              "_CONTROLLED": "",
              "_DESCRIPTION": "",
              "_ORIGIN": "Derived",
              "_ORDER": "33",
              "_Comments": "Equal to numeric value of EGSTRESC"
            },
            {
              "_NAME": "EGSTRESU",
              "_LABEL": "Standard Units",
              "_TYPE": "Char",
              "_LENGTH": "20",
              "_ROLE": "Variable Qualifier",
              "_CORE": "Perm",
              "_CONTROLLED": "(UNIT)",
              "_DESCRIPTION": "",
              "_ORIGIN": "Assigned",
              "_ORDER": "34",
              "_Comments": ""
            },
            {
              "_NAME": "EGSTAT",
              "_LABEL": "Completion Status",
              "_TYPE": "Char",
              "_LENGTH": "8",
              "_ROLE": "Record Qualifier",
              "_CORE": "Perm",
              "_CONTROLLED": "(ND)",
              "_DESCRIPTION": "",
              "_ORIGIN": "Assigned",
              "_ORDER": "40",
              "_Comments": ""
            },
            {
              "_NAME": "EGREASND",
              "_LABEL": "Reason ECG Not Performed",
              "_TYPE": "Char",
              "_LENGTH": "200",
              "_ROLE": "Record Qualifier",
              "_CORE": "Perm",
              "_CONTROLLED": "",
              "_DESCRIPTION": "",
              "_ORIGIN": "Assigned",
              "_ORDER": "41",
              "_Comments": ""
            },
            {
              "_NAME": "EGXFN",
              "_LABEL": "ECG External File Path",
              "_TYPE": "Char",
              "_LENGTH": "200",
              "_ROLE": "Record Qualifier",
              "_CORE": "Perm",
              "_CONTROLLED": "",
              "_DESCRIPTION": "",
              "_ORIGIN": "Assigned",
              "_ORDER": "42",
              "_Comments": ""
            },
            {
              "_NAME": "EGNAM",
              "_LABEL": "Vendor Name",
              "_TYPE": "Char",
              "_LENGTH": "200",
              "_ROLE": "Record Qualifier",
              "_CORE": "Perm",
              "_CONTROLLED": "",
              "_DESCRIPTION": "",
              "_ORIGIN": "Assigned",
              "_ORDER": "43",
              "_Comments": ""
            },
            {
              "_NAME": "EGLOC",
              "_LABEL": "Lead Location Used for Measurement",
              "_TYPE": "Char",
              "_LENGTH": "200",
              "_ROLE": "Record Qualifier",
              "_CORE": "Perm",
              "_CONTROLLED": "(LOC)",
              "_DESCRIPTION": "",
              "_ORIGIN": "Protocol",
              "_ORDER": "49",
              "_Comments": ""
            },
            {
              "_NAME": "EGMETHOD",
              "_LABEL": "Method of ECG Test",
              "_TYPE": "Char",
              "_LENGTH": "200",
              "_ROLE": "Record Qualifier",
              "_CORE": "Perm",
              "_CONTROLLED": "(EGMETHOD)",
              "_DESCRIPTION": "",
              "_ORIGIN": "Protocol",
              "_ORDER": "53",
              "_Comments": ""
            },
            {
              "_NAME": "EGLEAD",
              "_LABEL": "Lead Identified to Collect Measurements",
              "_TYPE": "Char",
              "_LENGTH": "10",
              "_ROLE": "Record Qualifier",
              "_CORE": "Perm",
              "_CONTROLLED": "(EGLEAD)",
              "_DESCRIPTION": "",
              "_ORIGIN": "Assigned",
              "_ORDER": "54",
              "_Comments": ""
            },
            {
              "_NAME": "EGBLFL",
              "_LABEL": "Baseline Flag",
              "_TYPE": "Char",
              "_LENGTH": "1",
              "_ROLE": "Record Qualifier",
              "_CORE": "Exp",
              "_CONTROLLED": "(NY)",
              "_DESCRIPTION": "",
              "_ORIGIN": "Derived",
              "_ORDER": "56",
              "_Comments": "Derivation of baseline: Safety subjects only: EGBLFL=Y for last non missing record on or before the first dose date (RFSTDTC)."
            },
            {
              "_NAME": "EGDRVFL",
              "_LABEL": "Derived Flag",
              "_TYPE": "Char",
              "_LENGTH": "1",
              "_ROLE": "Record Qualifier",
              "_CORE": "Perm",
              "_CONTROLLED": "(NY)",
              "_DESCRIPTION": "",
              "_ORIGIN": "Assigned",
              "_ORDER": "58",
              "_Comments": ""
            },
            {
              "_NAME": "EGEVAL",
              "_LABEL": "Evaluator",
              "_TYPE": "Char",
              "_LENGTH": "20",
              "_ROLE": "Record Qualifier",
              "_CORE": "Perm",
              "_CONTROLLED": "",
              "_DESCRIPTION": "",
              "_ORIGIN": "Assigned",
              "_ORDER": "59",
              "_Comments": ""
            },
            {
              "_NAME": "VISITNUM",
              "_LABEL": "Visit Number",
              "_TYPE": "Num",
              "_LENGTH": "8",
              "_ROLE": "Timing",
              "_CORE": "Exp",
              "_CONTROLLED": "",
              "_DESCRIPTION": "",
              "_ORIGIN": "Assigned",
              "_ORDER": "100",
              "_Comments": ""
            },
            {
              "_NAME": "VISIT",
              "_LABEL": "Visit Name",
              "_TYPE": "Char",
              "_LENGTH": "200",
              "_ROLE": "Timing",
              "_CORE": "Perm",
              "_CONTROLLED": "",
              "_DESCRIPTION": "",
              "_ORIGIN": "Assigned",
              "_ORDER": "101",
              "_Comments": ""
            },
            {
              "_NAME": "VISITDY",
              "_LABEL": "Planned Study Day of Visit",
              "_TYPE": "Num",
              "_LENGTH": "8",
              "_ROLE": "Timing",
              "_CORE": "Perm",
              "_CONTROLLED": "",
              "_DESCRIPTION": "",
              "_ORIGIN": "Protocol",
              "_ORDER": "102",
              "_Comments": ""
            },
            {
              "_NAME": "EGDTC",
              "_LABEL": "Date/Time of ECG",
              "_TYPE": "Char",
              "_LENGTH": "20",
              "_ROLE": "Timing",
              "_CORE": "Exp",
              "_CONTROLLED": "ISO 8601",
              "_DESCRIPTION": "",
              "_ORIGIN": "Assigned",
              "_ORDER": "105",
              "_Comments": ""
            },
            {
              "_NAME": "EGDY",
              "_LABEL": "Study Day of ECG",
              "_TYPE": "Num",
              "_LENGTH": "8",
              "_ROLE": "Timing",
              "_CORE": "Perm",
              "_CONTROLLED": "",
              "_DESCRIPTION": "",
              "_ORIGIN": "Derived",
              "_ORDER": "108",
              "_Comments": "Relative study day between <EGDTC> and DM.RFSTDTC. Add 1 if the difference is greater than or equal to 0."
            },
            {
              "_NAME": "EGTPT",
              "_LABEL": "Planned Time Point Name",
              "_TYPE": "Char",
              "_LENGTH": "200",
              "_ROLE": "Timing",
              "_CORE": "Perm",
              "_CONTROLLED": "",
              "_DESCRIPTION": "",
              "_ORIGIN": "Assigned",
              "_ORDER": "112",
              "_Comments": ""
            },
            {
              "_NAME": "EGTPTNUM",
              "_LABEL": "Planned Time Point Number",
              "_TYPE": "Num",
              "_LENGTH": "8",
              "_ROLE": "Timing",
              "_CORE": "Perm",
              "_CONTROLLED": "",
              "_DESCRIPTION": "",
              "_ORIGIN": "Assigned",
              "_ORDER": "113",
              "_Comments": ""
            },
            {
              "_NAME": "EGELTM",
              "_LABEL": "Planned Elapsed Time from Time Point Ref",
              "_TYPE": "Char",
              "_LENGTH": "20",
              "_ROLE": "Timing",
              "_CORE": "Perm",
              "_CONTROLLED": "ISO 8601",
              "_DESCRIPTION": "",
              "_ORIGIN": "Assigned",
              "_ORDER": "114",
              "_Comments": ""
            },
            {
              "_NAME": "EGTPTREF",
              "_LABEL": "Time Point Reference",
              "_TYPE": "Char",
              "_LENGTH": "200",
              "_ROLE": "Timing",
              "_CORE": "Perm",
              "_CONTROLLED": "",
              "_DESCRIPTION": "",
              "_ORIGIN": "Assigned",
              "_ORDER": "115",
              "_Comments": ""
            },
            {
              "_NAME": "EGRFTDTC",
              "_LABEL": "Date/Time of Reference Time Point",
              "_TYPE": "Char",
              "_LENGTH": "20",
              "_ROLE": "Timing",
              "_CORE": "Perm",
              "_CONTROLLED": "ISO 8601",
              "_DESCRIPTION": "",
              "_ORIGIN": "Assigned",
              "_ORDER": "116",
              "_Comments": ""
            }
          ]
        },
        "KEYVARIABLES": {
          "children": [
            {
              "_NAME": "STUDYID"
            },
            {
              "_NAME": "USUBJID"
            },
            {
              "_NAME": "VISITNUM"
            },
            {
              "_NAME": "VISIT"
            },
            {
              "_NAME": "EGTPTNUM"
            },
            {
              "_NAME": "EGTPT"
            },
            {
              "_NAME": "EGDTC"
            },
            {
              "_NAME": "EGCAT"
            },
            {
              "_NAME": "EGTESTCD"
            }
          ]
        },
        "_CODE": "EG",
        "_NAME": "ECG Test Results",
        "_STRUCTURE": "One record per ECG observation per time point per visit per subject",
        "_CLASS": "Findings",
        "_DESCRIPTION": ""
      },
      {
        "VARIABLES": {
          "children": [
            {
              "_NAME": "STUDYID",
              "_LABEL": "Study Identifier",
              "_TYPE": "Char",
              "_LENGTH": "20",
              "_ROLE": "Identifier",
              "_CORE": "Req",
              "_CONTROLLED": "",
              "_DESCRIPTION": "",
              "_ORIGIN": "Assigned",
              "_ORDER": "1",
              "_Comments": ""
            },
            {
              "_NAME": "DOMAIN",
              "_LABEL": "Domain Abbreviation",
              "_TYPE": "Char",
              "_LENGTH": "2",
              "_ROLE": "Identifier",
              "_CORE": "Req",
              "_CONTROLLED": "",
              "_DESCRIPTION": "",
              "_ORIGIN": "Assigned",
              "_ORDER": "2",
              "_Comments": ""
            },
            {
              "_NAME": "USUBJID",
              "_LABEL": "Unique Subject Identifier",
              "_TYPE": "Char",
              "_LENGTH": "25",
              "_ROLE": "Identifier",
              "_CORE": "Req",
              "_CONTROLLED": "",
              "_DESCRIPTION": "",
              "_ORIGIN": "Derived",
              "_ORDER": "4",
              "_Comments": "Concatenate STUDYID, SITEID and SUBJID, separated by \"-\"."
            },
            {
              "_NAME": "IESEQ",
              "_LABEL": "Sequence Number",
              "_TYPE": "Num",
              "_LENGTH": "8",
              "_ROLE": "Identifier",
              "_CORE": "Req",
              "_CONTROLLED": "",
              "_DESCRIPTION": "",
              "_ORIGIN": "Derived",
              "_ORDER": "8",
              "_Comments": "Sort by the key variables specified in the domain list. Assign IESEQ=1 to the first record and increment IESEQ by 1 for each additional record so that IESEQ is unique for each record within a USUBJID."
            },
            {
              "_NAME": "IESPID",
              "_LABEL": "Sponsor-Defined Identifier",
              "_TYPE": "Char",
              "_LENGTH": "20",
              "_ROLE": "Identifier",
              "_CORE": "Perm",
              "_CONTROLLED": "",
              "_DESCRIPTION": "",
              "_ORIGIN": "Assigned",
              "_ORDER": "11",
              "_Comments": ""
            },
            {
              "_NAME": "IETESTCD",
              "_LABEL": "Inclusion/Exclusion Criterion Short Name",
              "_TYPE": "Char",
              "_LENGTH": "8",
              "_ROLE": "Topic",
              "_CORE": "Req",
              "_CONTROLLED": "",
              "_DESCRIPTION": "",
              "_ORIGIN": "Assigned",
              "_ORDER": "20",
              "_Comments": ""
            },
            {
              "_NAME": "IETEST",
              "_LABEL": "Inclusion/Exclusion Criterion",
              "_TYPE": "Char",
              "_LENGTH": "200",
              "_ROLE": "Synonym Qualifier",
              "_CORE": "Req",
              "_CONTROLLED": "",
              "_DESCRIPTION": "",
              "_ORIGIN": "Assigned",
              "_ORDER": "21",
              "_Comments": ""
            },
            {
              "_NAME": "IECAT",
              "_LABEL": "Inclusion/Exclusion Category",
              "_TYPE": "Char",
              "_LENGTH": "200",
              "_ROLE": "Grouping Qualifier",
              "_CORE": "Req",
              "_CONTROLLED": "(IECAT)",
              "_DESCRIPTION": "",
              "_ORIGIN": "Assigned",
              "_ORDER": "24",
              "_Comments": ""
            },
            {
              "_NAME": "IESCAT",
              "_LABEL": "Inclusion/Exclusion Subcategory",
              "_TYPE": "Char",
              "_LENGTH": "200",
              "_ROLE": "Grouping Qualifier",
              "_CORE": "Perm",
              "_CONTROLLED": "",
              "_DESCRIPTION": "",
              "_ORIGIN": "Assigned",
              "_ORDER": "25",
              "_Comments": ""
            },
            {
              "_NAME": "IEORRES",
              "_LABEL": "I/E Criterion Original Result",
              "_TYPE": "Char",
              "_LENGTH": "1",
              "_ROLE": "Result Qualifier",
              "_CORE": "Req",
              "_CONTROLLED": "(NY)",
              "_DESCRIPTION": "",
              "_ORIGIN": "Assigned",
              "_ORDER": "28",
              "_Comments": ""
            },
            {
              "_NAME": "IESTRESC",
              "_LABEL": "I/E Criterion Result in Std Format",
              "_TYPE": "Char",
              "_LENGTH": "1",
              "_ROLE": "Result Qualifier",
              "_CORE": "Req",
              "_CONTROLLED": "(NY)",
              "_DESCRIPTION": "",
              "_ORIGIN": "Derived",
              "_ORDER": "32",
              "_Comments": "Equal to IEORRES."
            },
            {
              "_NAME": "VISITNUM",
              "_LABEL": "Visit Number",
              "_TYPE": "Num",
              "_LENGTH": "8",
              "_ROLE": "Timing",
              "_CORE": "Perm",
              "_CONTROLLED": "",
              "_DESCRIPTION": "",
              "_ORIGIN": "Assigned",
              "_ORDER": "100",
              "_Comments": ""
            },
            {
              "_NAME": "VISIT",
              "_LABEL": "Visit Name",
              "_TYPE": "Char",
              "_LENGTH": "200",
              "_ROLE": "Timing",
              "_CORE": "Perm",
              "_CONTROLLED": "",
              "_DESCRIPTION": "",
              "_ORIGIN": "Assigned",
              "_ORDER": "101",
              "_Comments": ""
            },
            {
              "_NAME": "VISITDY",
              "_LABEL": "Planned Study Day of Visit",
              "_TYPE": "Num",
              "_LENGTH": "8",
              "_ROLE": "Timing",
              "_CORE": "Perm",
              "_CONTROLLED": "",
              "_DESCRIPTION": "",
              "_ORIGIN": "Protocol",
              "_ORDER": "102",
              "_Comments": ""
            },
            {
              "_NAME": "IEDTC",
              "_LABEL": "Date/Time of Collection",
              "_TYPE": "Char",
              "_LENGTH": "20",
              "_ROLE": "Timing",
              "_CORE": "Perm",
              "_CONTROLLED": "ISO 8601",
              "_DESCRIPTION": "",
              "_ORIGIN": "Assigned",
              "_ORDER": "105",
              "_Comments": ""
            },
            {
              "_NAME": "IEDY",
              "_LABEL": "Study Day of Collection",
              "_TYPE": "Num",
              "_LENGTH": "8",
              "_ROLE": "Timing",
              "_CORE": "Perm",
              "_CONTROLLED": "",
              "_DESCRIPTION": "",
              "_ORIGIN": "Derived",
              "_ORDER": "108",
              "_Comments": "Relative study day between <IEDTC> and DM.RFSTDTC. Add 1 if the difference is greater than or equal to 0."
            }
          ]
        },
        "KEYVARIABLES": {
          "children": [
            {
              "_NAME": "STUDYID"
            },
            {
              "_NAME": "USUBJID"
            },
            {
              "_NAME": "VISITNUM"
            },
            {
              "_NAME": "VISIT"
            },
            {
              "_NAME": "IEDTC"
            },
            {
              "_NAME": "IECAT"
            },
            {
              "_NAME": "IETESTCD"
            }
          ]
        },
        "_CODE": "IE",
        "_NAME": "Inclusion/Exclusion Criteria Not Met",
        "_STRUCTURE": "One record per inclusion/exclusion criterion not met per subject",
        "_CLASS": "Findings",
        "_DESCRIPTION": ""
      },
      {
        "VARIABLES": {
          "children": [
            {
              "_NAME": "STUDYID",
              "_LABEL": "Study Identifier",
              "_TYPE": "Char",
              "_LENGTH": "20",
              "_ROLE": "Identifier",
              "_CORE": "Req",
              "_CONTROLLED": "",
              "_DESCRIPTION": "",
              "_ORIGIN": "Assigned",
              "_ORDER": "1",
              "_Comments": ""
            },
            {
              "_NAME": "DOMAIN",
              "_LABEL": "Domain Abbreviation",
              "_TYPE": "Char",
              "_LENGTH": "2",
              "_ROLE": "Identifier",
              "_CORE": "Req",
              "_CONTROLLED": "",
              "_DESCRIPTION": "",
              "_ORIGIN": "Assigned",
              "_ORDER": "2",
              "_Comments": ""
            },
            {
              "_NAME": "USUBJID",
              "_LABEL": "Unique Subject Identifier",
              "_TYPE": "Char",
              "_LENGTH": "25",
              "_ROLE": "Identifier",
              "_CORE": "Req",
              "_CONTROLLED": "",
              "_DESCRIPTION": "",
              "_ORIGIN": "Derived",
              "_ORDER": "4",
              "_Comments": "Concatenate STUDYID, SITEID and SUBJID, separated by \"-\"."
            },
            {
              "_NAME": "LBSEQ",
              "_LABEL": "Sequence Number",
              "_TYPE": "Num",
              "_LENGTH": "8",
              "_ROLE": "Identifier",
              "_CORE": "Req",
              "_CONTROLLED": "",
              "_DESCRIPTION": "",
              "_ORIGIN": "Derived",
              "_ORDER": "8",
              "_Comments": "Sort by the key variables specified in the domain list. Assign LBSEQ=1 to the first record and increment LBSEQ by 1 for each additional record so that LBSEQ is unique for each record within a USUBJID."
            },
            {
              "_NAME": "LBGRPID",
              "_LABEL": "Group ID",
              "_TYPE": "Char",
              "_LENGTH": "20",
              "_ROLE": "Identifier",
              "_CORE": "Perm",
              "_CONTROLLED": "",
              "_DESCRIPTION": "",
              "_ORIGIN": "Assigned",
              "_ORDER": "9",
              "_Comments": ""
            },
            {
              "_NAME": "LBREFID",
              "_LABEL": "Specimen ID",
              "_TYPE": "Char",
              "_LENGTH": "20",
              "_ROLE": "Identifier",
              "_CORE": "Perm",
              "_CONTROLLED": "",
              "_DESCRIPTION": "",
              "_ORIGIN": "Assigned",
              "_ORDER": "10",
              "_Comments": ""
            },
            {
              "_NAME": "LBSPID",
              "_LABEL": "Sponsor-Defined Identifier",
              "_TYPE": "Char",
              "_LENGTH": "20",
              "_ROLE": "Identifier",
              "_CORE": "Perm",
              "_CONTROLLED": "",
              "_DESCRIPTION": "",
              "_ORIGIN": "Assigned",
              "_ORDER": "11",
              "_Comments": ""
            },
            {
              "_NAME": "LBTESTCD",
              "_LABEL": "Lab Test or Examination Short Name",
              "_TYPE": "Char",
              "_LENGTH": "8",
              "_ROLE": "Topic",
              "_CORE": "Req",
              "_CONTROLLED": "",
              "_DESCRIPTION": "",
              "_ORIGIN": "Assigned",
              "_ORDER": "20",
              "_Comments": ""
            },
            {
              "_NAME": "LBTEST",
              "_LABEL": "Lab Test or Examination Name",
              "_TYPE": "Char",
              "_LENGTH": "40",
              "_ROLE": "Synonym Qualifier",
              "_CORE": "Req",
              "_CONTROLLED": "",
              "_DESCRIPTION": "",
              "_ORIGIN": "eDT",
              "_ORDER": "21",
              "_Comments": ""
            },
            {
              "_NAME": "LBCAT",
              "_LABEL": "Category for Lab Test",
              "_TYPE": "Char",
              "_LENGTH": "200",
              "_ROLE": "Grouping Qualifier",
              "_CORE": "Exp",
              "_CONTROLLED": "",
              "_DESCRIPTION": "",
              "_ORIGIN": "eDT",
              "_ORDER": "24",
              "_Comments": ""
            },
            {
              "_NAME": "LBSCAT",
              "_LABEL": "Subcategory for Lab Test",
              "_TYPE": "Char",
              "_LENGTH": "200",
              "_ROLE": "Grouping Qualifier",
              "_CORE": "Perm",
              "_CONTROLLED": "",
              "_DESCRIPTION": "",
              "_ORIGIN": "eDT",
              "_ORDER": "25",
              "_Comments": ""
            },
            {
              "_NAME": "LBORRES",
              "_LABEL": "Result or Finding in Original Units",
              "_TYPE": "Char",
              "_LENGTH": "200",
              "_ROLE": "Result Qualifier",
              "_CORE": "Exp",
              "_CONTROLLED": "",
              "_DESCRIPTION": "",
              "_ORIGIN": "eDT",
              "_ORDER": "28",
              "_Comments": ""
            },
            {
              "_NAME": "LBORRESU",
              "_LABEL": "Original Units",
              "_TYPE": "Char",
              "_LENGTH": "20",
              "_ROLE": "Variable Qualifier",
              "_CORE": "Exp",
              "_CONTROLLED": "(UNIT)",
              "_DESCRIPTION": "",
